
time,ax,ay,az,Latitude,Longitude,Speed (m/s),
0.049745,0.0000,0.0000,0.0000,0.00000000,0.00000000,0.00000000,
0.071753,0.0000,0.0000,0.0000,0.00000000,0.00000000,0.00000000,
0.077696,0.0000,0.0000,0.0000,0.00000000,0.00000000,0.00000000,
0.112518,0.0000,0.0000,0.0000,0.00000000,0.00000000,0.00000000,
0.178414,0.0000,0.0000,0.0000,0.00000000,0.00000000,0.00000000,
0.179186,0.0000,0.0000,0.0000,0.00000000,0.00000000,0.00000000,
0.179780,0.0000,0.0000,0.0000,0.00000000,0.00000000,0.00000000,
0.180376,0.0000,0.0000,0.0000,0.00000000,0.00000000,0.00000000,
0.185718,0.0000,0.0000,0.0000,0.00000000,0.00000000,0.00000000,
0.215596,0.0000,0.0000,0.0000,0.00000000,0.00000000,0.00000000,
0.216325,0.0000,0.0000,0.0000,0.00000000,0.00000000,0.00000000,
0.245396,0.0000,0.0000,0.0000,0.00000000,0.00000000,0.00000000,
0.255562,0.0000,0.0000,0.0000,0.00000000,0.00000000,0.00000000,
0.256202,0.0000,0.0000,0.0000,0.00000000,0.00000000,0.00000000,
0.256666,-0.0964,0.0026,-0.2379,0.00000000,0.00000000,0.00000000,
0.308164,-0.0964,0.0026,-0.2379,0.00000000,0.00000000,0.00000000,
0.308900,-0.0964,0.0026,-0.2379,0.00000000,0.00000000,0.00000000,
0.325811,-0.0964,0.0026,-0.2379,0.00000000,0.00000000,0.00000000,
0.326565,-0.0964,0.0026,-0.2379,0.00000000,0.00000000,0.00000000,
0.327217,-0.0365,-0.1889,-0.2685,0.00000000,0.00000000,0.00000000,
0.378835,-0.0365,-0.1889,-0.2685,0.00000000,0.00000000,0.00000000,
0.379510,-0.0365,-0.1889,-0.2685,0.00000000,0.00000000,0.00000000,
0.379965,-0.0365,-0.1889,-0.2685,0.00000000,0.00000000,0.00000000,
0.395789,0.1909,0.2699,-0.3099,0.00000000,0.00000000,0.00000000,
0.396949,0.1909,0.2699,-0.3099,0.00000000,0.00000000,0.00000000,
0.397600,0.1909,0.2699,-0.3099,0.00000000,0.00000000,0.00000000,
0.445822,0.1909,0.2699,-0.3099,0.00000000,0.00000000,0.00000000,
0.446555,0.1909,0.2699,-0.3099,0.00000000,0.00000000,0.00000000,
0.466312,0.1909,0.2699,-0.3099,0.00000000,0.00000000,0.00000000,
0.469910,0.0526,0.0184,0.0704,0.00000000,0.00000000,0.00000000,
0.470682,0.0526,0.0184,0.0704,0.00000000,0.00000000,0.00000000,
0.512544,0.0526,0.0184,0.0704,0.00000000,0.00000000,0.00000000,
0.513490,0.0526,0.0184,0.0704,0.00000000,0.00000000,0.00000000,
0.537608,-0.0327,0.0533,-0.3471,0.00000000,0.00000000,0.00000000,
0.539386,-0.0327,0.0533,-0.3471,0.00000000,0.00000000,0.00000000,
0.539920,-0.0327,0.0533,-0.3471,0.00000000,0.00000000,0.00000000,
0.540352,-0.0327,0.0533,-0.3471,0.00000000,0.00000000,0.00000000,
0.558560,-0.0327,0.0533,-0.3471,0.00000000,0.00000000,0.00000000,
0.578579,-0.0327,0.0533,-0.3471,0.00000000,0.00000000,0.00000000,
0.606496,0.0076,-0.0527,0.0988,0.00000000,0.00000000,0.00000000,
0.607721,0.0076,-0.0527,0.0988,0.00000000,0.00000000,0.00000000,
0.608616,0.0076,-0.0527,0.0988,0.00000000,0.00000000,0.00000000,
0.645589,0.0076,-0.0527,0.0988,0.00000000,0.00000000,0.00000000,
0.646389,0.0076,-0.0527,0.0988,0.00000000,0.00000000,0.00000000,
0.677270,0.0076,-0.0527,0.0988,0.00000000,0.00000000,0.00000000,
0.677978,0.0076,-0.0527,0.0988,0.00000000,0.00000000,0.00000000,
0.678410,0.0838,0.0609,-0.3696,0.00000000,0.00000000,0.00000000,
0.679093,0.0838,0.0609,-0.3696,0.00000000,0.00000000,0.00000000,
0.712043,0.0838,0.0609,-0.3696,0.00000000,0.00000000,0.00000000,
0.746935,0.0335,0.1015,-0.1232,0.00000000,0.00000000,0.00000000,
0.748022,0.0335,0.1015,-0.1232,0.00000000,0.00000000,0.00000000,
0.748474,0.0335,0.1015,-0.1232,0.00000000,0.00000000,0.00000000,
0.748918,0.0335,0.1015,-0.1232,0.00000000,0.00000000,0.00000000,
0.778613,0.0335,0.1015,-0.1232,0.00000000,0.00000000,0.00000000,
0.779267,0.0335,0.1015,-0.1232,0.00000000,0.00000000,0.00000000,
0.808195,0.0335,0.1015,-0.1232,0.00000000,0.00000000,0.00000000,
0.816924,0.0335,0.1015,-0.1232,0.00000000,0.00000000,0.00000000,
0.817547,-0.0141,0.0246,0.0040,0.00000000,0.00000000,0.00000000,
0.818295,-0.0141,0.0246,0.0040,0.00000000,0.00000000,0.00000000,
0.845479,-0.0141,0.0246,0.0040,0.00000000,0.00000000,0.00000000,
0.888111,-0.0141,0.0246,0.0040,0.00000000,0.00000000,0.00000000,
0.889351,-0.0141,0.0246,0.0040,0.00000000,0.00000000,0.00000000,
0.889931,-0.0141,0.0246,0.0040,0.00000000,0.00000000,0.00000000,
0.890392,0.0050,0.0858,-0.2684,0.00000000,0.00000000,0.00000000,
0.911844,0.0050,0.0858,-0.2684,0.00000000,0.00000000,0.00000000,
0.957515,0.0050,0.0858,-0.2684,0.00000000,0.00000000,0.00000000,
0.958192,0.0050,0.0858,-0.2684,0.00000000,0.00000000,0.00000000,
0.958782,0.0050,0.0858,-0.2684,0.00000000,0.00000000,0.00000000,
0.959334,0.0050,0.0858,-0.2684,0.00000000,0.00000000,0.00000000,
0.959854,0.1464,0.1043,0.0726,0.00000000,0.00000000,0.00000000,
0.978477,0.1464,0.1043,0.0726,0.00000000,0.00000000,0.00000000,
1.028093,0.1464,0.1043,0.0726,0.00000000,0.00000000,0.00000000,
1.028805,0.1464,0.1043,0.0726,0.00000000,0.00000000,0.00000000,
1.029512,0.1464,0.1043,0.0726,0.00000000,0.00000000,0.00000000,
1.030036,-0.0670,0.1198,-0.0874,0.00000000,0.00000000,0.00000000,
1.045307,-0.0670,0.1198,-0.0874,0.00000000,0.00000000,0.00000000,
1.058280,-0.0670,0.1198,-0.0874,0.00000000,0.00000000,0.00000000,
1.098086,-0.0670,0.1198,-0.0874,0.00000000,0.00000000,0.00000000,
1.098811,-0.0533,0.0859,-0.1305,0.00000000,0.00000000,0.00000000,
1.099584,-0.0533,0.0859,-0.1305,0.00000000,0.00000000,0.00000000,
1.100016,-0.0533,0.0859,-0.1305,0.00000000,0.00000000,0.00000000,
1.168262,-0.0533,0.0859,-0.1305,0.00000000,0.00000000,0.00000000,
1.168989,-0.0533,0.0859,-0.1305,0.00000000,0.00000000,0.00000000,
1.169697,-0.0533,0.0859,-0.1305,0.00000000,0.00000000,0.00000000,
1.170351,-0.0533,0.0859,-0.1305,0.00000000,0.00000000,0.00000000,
1.170783,-0.0710,0.0342,-0.1908,0.00000000,0.00000000,0.00000000,
1.178558,-0.0710,0.0342,-0.1908,0.00000000,0.00000000,0.00000000,
1.239016,-0.0710,0.0342,-0.1908,0.00000000,0.00000000,0.00000000,
1.239710,-0.0710,0.0342,-0.1908,0.00000000,0.00000000,0.00000000,
1.240134,-0.0710,0.0342,-0.1908,0.00000000,0.00000000,0.00000000,
1.240553,-0.0710,0.0342,-0.1908,0.00000000,0.00000000,0.00000000,
1.240966,0.1413,0.1806,0.0508,0.00000000,0.00000000,0.00000000,
1.307744,0.1413,0.1806,0.0508,0.00000000,0.00000000,0.00000000,
1.308469,0.1413,0.1806,0.0508,0.00000000,0.00000000,0.00000000,
1.308937,0.1413,0.1806,0.0508,0.00000000,0.00000000,0.00000000,
1.310320,0.1413,0.1806,0.0508,0.00000000,0.00000000,0.00000000,
1.310795,0.0339,0.1494,0.1058,0.00000000,0.00000000,0.00000000,
1.378880,0.0339,0.1494,0.1058,0.00000000,0.00000000,0.00000000,
1.379647,0.0339,0.1494,0.1058,0.00000000,0.00000000,0.00000000,
1.380136,0.0339,0.1494,0.1058,0.00000000,0.00000000,0.00000000,
1.380766,0.0339,0.1494,0.1058,0.00000000,0.00000000,0.00000000,
1.381227,-0.0528,0.0252,-0.1108,0.00000000,0.00000000,0.00000000,
1.382024,-0.0528,0.0252,-0.1108,0.00000000,0.00000000,0.00000000,
1.446497,-0.0528,0.0252,-0.1108,0.00000000,0.00000000,0.00000000,
1.447167,-0.0528,0.0252,-0.1108,0.00000000,0.00000000,0.00000000,
1.447710,-0.0528,0.0252,-0.1108,0.00000000,0.00000000,0.00000000,
1.448965,-0.0224,0.0685,-0.1084,0.00000000,0.00000000,0.00000000,
1.449884,-0.0224,0.0685,-0.1084,0.00000000,0.00000000,0.00000000,
1.512916,-0.0224,0.0685,-0.1084,0.00000000,0.00000000,0.00000000,
1.513931,-0.0224,0.0685,-0.1084,0.00000000,0.00000000,0.00000000,
1.514348,-0.0224,0.0685,-0.1084,0.00000000,0.00000000,0.00000000,
1.522526,-0.0224,0.0685,-0.1084,0.00000000,0.00000000,0.00000000,
1.523353,0.1103,0.0312,0.0389,0.00000000,0.00000000,0.00000000,
1.524379,0.1103,0.0312,0.0389,0.00000000,0.00000000,0.00000000,
1.557492,0.1103,0.0312,0.0389,0.00000000,0.00000000,0.00000000,
1.578839,0.1103,0.0312,0.0389,0.00000000,0.00000000,0.00000000,
1.579302,0.1103,0.0312,0.0389,0.00000000,0.00000000,0.00000000,
1.589485,0.0254,0.0569,-0.1968,0.00000000,0.00000000,0.00000000,
1.589995,0.0254,0.0569,-0.1968,0.00000000,0.00000000,0.00000000,
1.645169,0.0254,0.0569,-0.1968,0.00000000,0.00000000,0.00000000,
1.645640,0.0254,0.0569,-0.1968,0.00000000,0.00000000,0.00000000,
1.645954,0.0254,0.0569,-0.1968,0.00000000,0.00000000,0.00000000,
1.659514,0.0254,0.0569,-0.1968,0.00000000,0.00000000,0.00000000,
1.659882,0.0129,0.0092,0.0921,0.00000000,0.00000000,0.00000000,
1.660282,0.0129,0.0092,0.0921,0.00000000,0.00000000,0.00000000,
1.711845,0.0129,0.0092,0.0921,0.00000000,0.00000000,0.00000000,
1.712724,0.0129,0.0092,0.0921,0.00000000,0.00000000,0.00000000,
1.730337,0.0129,0.0092,0.0921,0.00000000,0.00000000,0.00000000,
1.730992,-0.0309,0.0008,-0.1431,0.00000000,0.00000000,0.00000000,
1.731690,-0.0309,0.0008,-0.1431,0.00000000,0.00000000,0.00000000,
1.778614,-0.0309,0.0008,-0.1431,0.00000000,0.00000000,0.00000000,
1.779332,-0.0309,0.0008,-0.1431,0.00000000,0.00000000,0.00000000,
1.800603,0.0269,0.0859,0.1490,0.00000000,0.00000000,0.00000000,
1.801721,0.0269,0.0859,0.1490,0.00000000,0.00000000,0.00000000,
1.802135,0.0269,0.0859,0.1490,0.00000000,0.00000000,0.00000000,
1.802546,0.0269,0.0859,0.1490,0.00000000,0.00000000,0.00000000,
1.845571,0.0269,0.0859,0.1490,0.00000000,0.00000000,0.00000000,
1.846403,0.0269,0.0859,0.1490,0.00000000,0.00000000,0.00000000,
1.871244,-0.0119,-0.0180,0.0637,0.00000000,0.00000000,0.00000000,
1.872078,-0.0119,-0.0180,0.0637,0.00000000,0.00000000,0.00000000,
1.872522,-0.0119,-0.0180,0.0637,0.00000000,0.00000000,0.00000000,
1.912038,-0.0119,-0.0180,0.0637,0.00000000,0.00000000,0.00000000,
1.912914,-0.0119,-0.0180,0.0637,0.00000000,0.00000000,0.00000000,
1.941598,-0.0119,-0.0180,0.0637,0.00000000,0.00000000,0.00000000,
1.942683,-0.0119,-0.0180,0.0637,0.00000000,0.00000000,0.00000000,
1.943237,-0.0119,-0.0180,0.0637,0.00000000,0.00000000,0.00000000,
1.943757,0.0245,0.0556,-0.1912,0.00000000,0.00000000,0.00000000,
1.978741,0.0245,0.0556,-0.1912,0.00000000,0.00000000,0.00000000,
2.011281,0.0245,0.0556,-0.1912,0.00000000,0.00000000,0.00000000,
2.012112,0.0245,0.0556,-0.1912,0.00000000,0.00000000,0.00000000,
2.012847,0.0245,0.0556,-0.1912,0.00000000,0.00000000,0.00000000,
2.013327,0.0440,-0.0049,0.1232,0.00000000,0.00000000,0.00000000,
2.045670,0.0440,-0.0049,0.1232,0.00000000,0.00000000,0.00000000,
2.046522,0.0440,-0.0049,0.1232,0.00000000,0.00000000,0.00000000,
2.061654,0.0440,-0.0049,0.1232,0.00000000,0.00000000,0.00000000,
2.081956,-0.0070,0.0259,-0.0448,0.00000000,0.00000000,0.00000000,
2.083216,-0.0070,0.0259,-0.0448,0.00000000,0.00000000,0.00000000,
2.083627,-0.0070,0.0259,-0.0448,0.00000000,0.00000000,0.00000000,
2.111720,-0.0070,0.0259,-0.0448,0.00000000,0.00000000,0.00000000,
2.151958,-0.0070,0.0259,-0.0448,0.00000000,0.00000000,0.00000000,
2.152634,-0.0070,0.0259,-0.0448,55.75141794,48.74292784,0.20000000,
2.153344,-0.1007,-0.0134,-0.0477,55.75141794,48.74292784,0.20000000,
2.153929,-0.1007,-0.0134,-0.0477,55.75141794,48.74292784,0.20000000,
2.178876,-0.1007,-0.0134,-0.0477,55.75141794,48.74292784,0.20000000,
2.221964,-0.0987,-0.1177,0.0951,55.75141794,48.74292784,0.20000000,
2.223015,-0.0987,-0.1177,0.0951,55.75141794,48.74292784,0.20000000,
2.223464,-0.0987,-0.1177,0.0951,55.75141794,48.74292784,0.20000000,
2.223873,-0.0987,-0.1177,0.0951,55.75141794,48.74292784,0.20000000,
2.224279,-0.0987,-0.1177,0.0951,55.75141794,48.74292784,0.20000000,
2.245120,-0.0987,-0.1177,0.0951,55.75141794,48.74292784,0.20000000,
2.292547,-0.0029,0.1194,-0.0455,55.75141794,48.74292784,0.20000000,
2.293663,-0.0029,0.1194,-0.0455,55.75141794,48.74292784,0.20000000,
2.294139,-0.0029,0.1194,-0.0455,55.75141794,48.74292784,0.20000000,
2.294565,-0.0029,0.1194,-0.0455,55.75141794,48.74292784,0.20000000,
2.307510,-0.0029,0.1194,-0.0455,55.75141794,48.74292784,0.20000000,
2.363512,-0.0029,0.1194,-0.0455,55.75141794,48.74292784,0.20000000,
2.364584,-0.0029,0.1194,-0.0455,55.75141794,48.74292784,0.20000000,
2.365279,-0.0029,0.1194,-0.0455,55.75141794,48.74292784,0.20000000,
2.365845,-0.0029,0.1194,-0.0455,55.75141794,48.74292784,0.20000000,
2.366347,-0.0572,0.0070,-0.0349,55.75141794,48.74292784,0.20000000,
2.432450,-0.0572,0.0070,-0.0349,55.75141794,48.74292784,0.20000000,
2.433160,-0.0572,0.0070,-0.0349,55.75141794,48.74292784,0.20000000,
2.433559,-0.0572,0.0070,-0.0349,55.75141794,48.74292784,0.20000000,
2.433980,-0.1566,-0.0754,-0.0111,55.75141794,48.74292784,0.20000000,
2.434640,-0.1566,-0.0754,-0.0111,55.75141794,48.74292784,0.20000000,
2.446005,-0.1566,-0.0754,-0.0111,55.75141794,48.74292784,0.20000000,
2.504082,-0.1566,-0.0754,-0.0111,55.75141794,48.74292784,0.20000000,
2.504995,-0.1566,-0.0754,-0.0111,55.75141794,48.74292784,0.20000000,
2.505660,-0.1566,-0.0754,-0.0111,55.75141794,48.74292784,0.20000000,
2.506494,-0.1452,0.0104,0.0737,55.75141794,48.74292784,0.20000000,
2.507516,-0.1452,0.0104,0.0737,55.75141794,48.74292784,0.20000000,
2.558236,-0.1452,0.0104,0.0737,55.75141794,48.74292784,0.20000000,
2.559039,-0.1452,0.0104,0.0737,55.75141794,48.74292784,0.20000000,
2.576698,-0.0188,-0.1432,0.0672,55.75141794,48.74292784,0.20000000,
2.578292,-0.0188,-0.1432,0.0672,55.75141794,48.74292784,0.20000000,
2.578841,-0.0188,-0.1432,0.0672,55.75141794,48.74292784,0.20000000,
2.645314,0.0035,-0.0698,-0.0723,55.75141794,48.74292784,0.20000000,
2.646797,0.0035,-0.0698,-0.0723,55.75141794,48.74292784,0.20000000,
2.647335,0.0035,-0.0698,-0.0723,55.75141794,48.74292784,0.20000000,
2.647823,0.0035,-0.0698,-0.0723,55.75141794,48.74292784,0.20000000,
2.648457,0.0035,-0.0698,-0.0723,55.75141794,48.74292784,0.20000000,
2.648887,0.0035,-0.0698,-0.0723,55.75141794,48.74292784,0.20000000,
2.712601,0.0035,-0.0698,-0.0723,55.75141794,48.74292784,0.20000000,
2.713654,0.0035,-0.0698,-0.0723,55.75141794,48.74292784,0.20000000,
2.714103,0.0035,-0.0698,-0.0723,55.75141794,48.74292784,0.20000000,
2.714510,0.0035,-0.0698,-0.0723,55.75141794,48.74292784,0.20000000,
2.714883,-0.0871,0.0676,0.0645,55.75141794,48.74292784,0.20000000,
2.779321,-0.0871,0.0676,0.0645,55.75141794,48.74292784,0.20000000,
2.780085,-0.0871,0.0676,0.0645,55.75141794,48.74292784,0.20000000,
2.780507,-0.0871,0.0676,0.0645,55.75141794,48.74292784,0.20000000,
2.784505,-0.3460,0.1297,0.0155,55.75141794,48.74292784,0.20000000,
2.785595,-0.3460,0.1297,0.0155,55.75141794,48.74292784,0.20000000,
2.786019,-0.3460,0.1297,0.0155,55.75141794,48.74292784,0.20000000,
2.809609,-0.3460,0.1297,0.0155,55.75141794,48.74292784,0.20000000,
2.846718,-0.3460,0.1297,0.0155,55.75141794,48.74292784,0.20000000,
2.847691,-0.3460,0.1297,0.0155,55.75141794,48.74292784,0.20000000,
2.854248,-0.3287,0.2711,0.0817,55.75141794,48.74292784,0.20000000,
2.855519,-0.3287,0.2711,0.0817,55.75141794,48.74292784,0.20000000,
2.911758,-0.3287,0.2711,0.0817,55.75141794,48.74292784,0.20000000,
2.912689,-0.3287,0.2711,0.0817,55.75141794,48.74292784,0.20000000,
2.913326,-0.3287,0.2711,0.0817,55.75141794,48.74292784,0.20000000,
2.926373,-0.2543,0.1403,-0.0005,55.75141794,48.74292784,0.20000000,
2.927443,-0.2543,0.1403,-0.0005,55.75141794,48.74292784,0.20000000,
2.927858,-0.2543,0.1403,-0.0005,55.75141794,48.74292784,0.20000000,
2.979954,-0.2543,0.1403,-0.0005,55.75141794,48.74292784,0.20000000,
2.980791,-0.2543,0.1403,-0.0005,55.75141794,48.74292784,0.20000000,
2.995313,-0.4816,-0.3327,0.1515,55.75141794,48.74292784,0.20000000,
2.996721,-0.4816,-0.3327,0.1515,55.75141794,48.74292784,0.20000000,
2.997313,-0.4816,-0.3327,0.1515,55.75141794,48.74292784,0.20000000,
3.045158,-0.4816,-0.3327,0.1515,55.75141794,48.74292784,0.20000000,
3.045841,-0.4816,-0.3327,0.1515,55.75141794,48.74292784,0.20000000,
3.046258,-0.4816,-0.3327,0.1515,55.75141794,48.74292784,0.20000000,
3.064436,-0.4816,-0.3327,0.1515,55.75141794,48.74292784,0.20000000,
3.065127,-0.1640,-0.0692,-0.2866,55.75141794,48.74292784,0.20000000,
3.065925,-0.1640,-0.0692,-0.2866,55.75141794,48.74292784,0.20000000,
3.111861,-0.1640,-0.0692,-0.2866,55.75141794,48.74292784,0.20000000,
3.112636,-0.1640,-0.0692,-0.2866,55.75141794,48.74292784,0.20000000,
3.135806,-0.1640,-0.0692,-0.2866,55.75141794,48.74292784,0.20000000,
3.136565,-0.1640,-0.0692,-0.2866,55.75141794,48.74292784,0.20000000,
3.136957,-0.0678,-0.1289,0.2985,55.75141794,48.74292784,0.20000000,
3.178454,-0.0678,-0.1289,0.2985,55.75141794,48.74292784,0.20000000,
3.179135,-0.0678,-0.1289,0.2985,55.75141794,48.74292784,0.20000000,
3.208896,-0.0678,-0.1289,0.2985,55.75141794,48.74292784,0.20000000,
3.209775,-0.0678,-0.1289,0.2985,55.75141794,48.74292784,0.20000000,
3.210332,0.5547,0.3188,-0.5423,55.75141794,48.74292784,0.20000000,
3.211199,0.5547,0.3188,-0.5423,55.75141794,48.74292784,0.20000000,
3.245658,0.5547,0.3188,-0.5423,55.75141794,48.74292784,0.20000000,
3.246493,0.5547,0.3188,-0.5423,55.75141794,48.74292784,0.20000000,
3.276932,0.5547,0.3188,-0.5423,55.75141794,48.74292784,0.20000000,
3.277809,0.6529,-0.1141,0.2012,55.75141794,48.74292784,0.20000000,
3.279339,0.6529,-0.1141,0.2012,55.75141794,48.74292784,0.20000000,
3.309413,0.6529,-0.1141,0.2012,55.75141794,48.74292784,0.20000000,
3.310049,0.6529,-0.1141,0.2012,55.75141794,48.74292784,0.20000000,
3.346480,0.6529,-0.1141,0.2012,55.75141794,48.74292784,0.20000000,
3.347191,0.4487,-0.2034,0.0178,55.75141794,48.74292784,0.20000000,
3.347918,0.4487,-0.2034,0.0178,55.75141794,48.74292784,0.20000000,
3.348317,0.4487,-0.2034,0.0178,55.75141794,48.74292784,0.20000000,
3.380229,0.4487,-0.2034,0.0178,55.75141794,48.74292784,0.20000000,
3.416220,0.4487,-0.2034,0.0178,55.75141794,48.74292784,0.20000000,
3.417395,0.9850,0.0454,-0.1433,55.75141794,48.74292784,0.20000000,
3.418291,0.9850,0.0454,-0.1433,55.75141794,48.74292784,0.20000000,
3.418815,0.9850,0.0454,-0.1433,55.75141794,48.74292784,0.20000000,
3.445582,0.9850,0.0454,-0.1433,55.75141794,48.74292784,0.20000000,
3.446794,0.9850,0.0454,-0.1433,55.75141794,48.74292784,0.20000000,
3.486960,0.9850,0.0454,-0.1433,55.75141794,48.74292784,0.20000000,
3.487978,0.9594,-0.1379,-0.3484,55.75141794,48.74292784,0.20000000,
3.488743,0.9594,-0.1379,-0.3484,55.75141794,48.74292784,0.20000000,
3.489257,0.9594,-0.1379,-0.3484,55.75141794,48.74292784,0.20000000,
3.512351,0.9594,-0.1379,-0.3484,55.75141794,48.74292784,0.20000000,
3.567015,0.9657,-0.0063,-0.3247,55.75141794,48.74292784,0.20000000,
3.568068,0.9657,-0.0063,-0.3247,55.75138558,48.74279037,0.00000000,
3.568593,0.9657,-0.0063,-0.3247,55.75138558,48.74279037,0.00000000,
3.568985,0.9657,-0.0063,-0.3247,55.75138558,48.74279037,0.00000000,
3.578610,0.9657,-0.0063,-0.3247,55.75138558,48.74279037,0.00000000,
3.626861,0.9657,-0.0063,-0.3247,55.75138558,48.74279037,0.00000000,
3.627685,0.7195,0.2537,-0.2064,55.75138558,48.74279037,0.00000000,
3.628348,0.7195,0.2537,-0.2064,55.75138558,48.74279037,0.00000000,
3.628742,0.7195,0.2537,-0.2064,55.75138558,48.74279037,0.00000000,
3.629226,0.7195,0.2537,-0.2064,55.75138558,48.74279037,0.00000000,
3.690274,0.7195,0.2537,-0.2064,55.75138558,48.74279037,0.00000000,
3.691153,0.7195,0.2537,-0.2064,55.75138558,48.74279037,0.00000000,
3.691566,0.7195,0.2537,-0.2064,55.75138558,48.74279037,0.00000000,
3.696787,0.0676,0.7241,-0.4015,55.75138558,48.74279037,0.00000000,
3.697644,0.0676,0.7241,-0.4015,55.75138558,48.74279037,0.00000000,
3.712510,0.0676,0.7241,-0.4015,55.75138558,48.74279037,0.00000000,
3.767860,0.0612,1.0732,-0.2010,55.75138558,48.74279037,0.00000000,
3.769470,0.0612,1.0732,-0.2010,55.75138558,48.74279037,0.00000000,
3.769896,0.0612,1.0732,-0.2010,55.75138558,48.74279037,0.00000000,
3.770270,0.0612,1.0732,-0.2010,55.75138558,48.74279037,0.00000000,
3.770649,0.0612,1.0732,-0.2010,55.75138558,48.74279037,0.00000000,
3.808818,0.0612,1.0732,-0.2010,55.75138558,48.74279037,0.00000000,
3.810013,0.0612,1.0732,-0.2010,55.75138558,48.74279037,0.00000000,
3.838548,0.3307,0.8786,0.3068,55.75138558,48.74279037,0.00000000,
3.840584,0.3307,0.8786,0.3068,55.75138558,48.74279037,0.00000000,
3.841151,0.3307,0.8786,0.3068,55.75138558,48.74279037,0.00000000,
3.908287,-0.0647,0.6508,-0.7148,55.75138558,48.74279037,0.00000000,
3.909515,-0.0647,0.6508,-0.7148,55.75138558,48.74279037,0.00000000,
3.909929,-0.0647,0.6508,-0.7148,55.75138558,48.74279037,0.00000000,
3.910302,-0.0647,0.6508,-0.7148,55.75138558,48.74279037,0.00000000,
3.910679,-0.0647,0.6508,-0.7148,55.75138558,48.74279037,0.00000000,
3.911230,-0.0647,0.6508,-0.7148,55.75138558,48.74279037,0.00000000,
3.978696,-0.3935,0.0870,0.1449,55.75138558,48.74279037,0.00000000,
3.979795,-0.3935,0.0870,0.1449,55.75138558,48.74279037,0.00000000,
3.980187,-0.3935,0.0870,0.1449,55.75138558,48.74279037,0.00000000,
3.980561,-0.3935,0.0870,0.1449,55.75138558,48.74279037,0.00000000,
3.980930,-0.3935,0.0870,0.1449,55.75138558,48.74279037,0.00000000,
3.998814,-0.3935,0.0870,0.1449,55.75138558,48.74279037,0.00000000,
4.046298,-0.3935,0.0870,0.1449,55.75138558,48.74279037,0.00000000,
4.047577,-0.3935,0.0870,0.1449,55.75138558,48.74279037,0.00000000,
4.048373,-0.3935,0.0870,0.1449,55.75138558,48.74279037,0.00000000,
4.048831,-0.5644,-0.2901,0.1790,55.75138558,48.74279037,0.00000000,
4.049723,-0.5644,-0.2901,0.1790,55.75138558,48.74279037,0.00000000,
4.112816,-0.5644,-0.2901,0.1790,55.75138558,48.74279037,0.00000000,
4.114374,-0.5644,-0.2901,0.1790,55.75138558,48.74279037,0.00000000,
4.115083,-0.5644,-0.2901,0.1790,55.75138558,48.74279037,0.00000000,
4.118949,-0.1951,-0.5825,0.1708,55.75138558,48.74279037,0.00000000,
4.119777,-0.1951,-0.5825,0.1708,55.75138558,48.74279037,0.00000000,
4.179502,-0.1951,-0.5825,0.1708,55.75138558,48.74279037,0.00000000,
4.180465,-0.1951,-0.5825,0.1708,55.75138558,48.74279037,0.00000000,
4.180861,-0.1951,-0.5825,0.1708,55.75138558,48.74279037,0.00000000,
4.189186,-0.1951,-0.5825,0.1708,55.75138558,48.74279037,0.00000000,
4.189832,0.2515,-0.3452,0.2977,55.75138558,48.74279037,0.00000000,
4.190530,0.2515,-0.3452,0.2977,55.75138558,48.74279037,0.00000000,
4.246176,0.2515,-0.3452,0.2977,55.75138558,48.74279037,0.00000000,
4.247294,0.2515,-0.3452,0.2977,55.75138558,48.74279037,0.00000000,
4.263090,0.2515,-0.3452,0.2977,55.75138558,48.74279037,0.00000000,
4.263943,0.2515,-0.3452,0.2977,55.75138558,48.74279037,0.00000000,
4.264336,0.0147,-0.1702,0.0783,55.75138558,48.74279037,0.00000000,
4.303767,0.0147,-0.1702,0.0783,55.75138558,48.74279037,0.00000000,
4.304624,0.0147,-0.1702,0.0783,55.75138558,48.74279037,0.00000000,
4.312329,0.0147,-0.1702,0.0783,55.75138558,48.74279037,0.00000000,
4.329468,0.0147,-0.1702,0.0783,55.75138558,48.74279037,0.00000000,
4.330404,-0.0129,0.1029,-0.8668,55.75138558,48.74279037,0.00000000,
4.331118,-0.0129,0.1029,-0.8668,55.75138558,48.74279037,0.00000000,
4.378575,-0.0129,0.1029,-0.8668,55.75138558,48.74279037,0.00000000,
4.379395,-0.0129,0.1029,-0.8668,55.75138558,48.74279037,0.00000000,
4.400085,-0.3719,-0.2323,-0.2426,55.75138558,48.74279037,0.00000000,
4.401474,-0.3719,-0.2323,-0.2426,55.75138558,48.74279037,0.00000000,
4.401880,-0.3719,-0.2323,-0.2426,55.75138558,48.74279037,0.00000000,
4.445717,-0.3719,-0.2323,-0.2426,55.75138558,48.74279037,0.00000000,
4.446751,-0.3719,-0.2323,-0.2426,55.75138558,48.74279037,0.00000000,
4.470880,-0.8982,-0.3409,0.9238,55.75138558,48.74279037,0.00000000,
4.473180,-0.8982,-0.3409,0.9238,55.75138558,48.74279037,0.00000000,
4.473652,-0.8982,-0.3409,0.9238,55.75138558,48.74279037,0.00000000,
4.474178,-0.8982,-0.3409,0.9238,55.75138558,48.74279037,0.00000000,
4.511653,-0.8982,-0.3409,0.9238,55.75138558,48.74279037,0.00000000,
4.512518,-0.8982,-0.3409,0.9238,55.75138558,48.74279037,0.00000000,
4.539888,-0.5311,0.3854,0.1358,55.75138558,48.74279037,0.00000000,
4.541139,-0.5311,0.3854,0.1358,55.75138558,48.74279037,0.00000000,
4.541613,-0.5311,0.3854,0.1358,55.75138558,48.74279037,0.00000000,
4.563568,-0.5311,0.3854,0.1358,55.75138558,48.74279037,0.00000000,
4.579014,-0.5311,0.3854,0.1358,55.75132360,48.74314948,0.00000000,
4.611477,-0.5311,0.3854,0.1358,55.75132360,48.74314948,0.00000000,
4.612655,-0.6209,-0.2622,0.2023,55.75132360,48.74314948,0.00000000,
4.613474,-0.6209,-0.2622,0.2023,55.75132360,48.74314948,0.00000000,
4.613865,-0.6209,-0.2622,0.2023,55.75132360,48.74314948,0.00000000,
4.645862,-0.6209,-0.2622,0.2023,55.75132360,48.74314948,0.00000000,
4.681566,-0.6209,-0.2622,0.2023,55.75132360,48.74314948,0.00000000,
4.682522,-0.6057,-0.2570,-0.2920,55.75132360,48.74314948,0.00000000,
4.683239,-0.6057,-0.2570,-0.2920,55.75132360,48.74314948,0.00000000,
4.683615,-0.6057,-0.2570,-0.2920,55.75132360,48.74314948,0.00000000,
4.712423,-0.6057,-0.2570,-0.2920,55.75132360,48.74314948,0.00000000,
4.714095,-0.6057,-0.2570,-0.2920,55.75132360,48.74314948,0.00000000,
4.750808,-0.6057,-0.2570,-0.2920,55.75132360,48.74314948,0.00000000,
4.751628,-0.5641,0.1755,0.2936,55.75132360,48.74314948,0.00000000,
4.752295,-0.5641,0.1755,0.2936,55.75132360,48.74314948,0.00000000,
4.752712,-0.5641,0.1755,0.2936,55.75132360,48.74314948,0.00000000,
4.778689,-0.5641,0.1755,0.2936,55.75132360,48.74314948,0.00000000,
4.807708,-0.5641,0.1755,0.2936,55.75132360,48.74314948,0.00000000,
4.822117,-0.3661,0.3480,0.3900,55.75132360,48.74314948,0.00000000,
4.823445,-0.3661,0.3480,0.3900,55.75132360,48.74314948,0.00000000,
4.823849,-0.3661,0.3480,0.3900,55.75132360,48.74314948,0.00000000,
4.845948,-0.3661,0.3480,0.3900,55.75132360,48.74314948,0.00000000,
4.892194,0.6309,-0.2959,0.2765,55.75132360,48.74314948,0.00000000,
4.893663,0.6309,-0.2959,0.2765,55.75132360,48.74314948,0.00000000,
4.894083,0.6309,-0.2959,0.2765,55.75132360,48.74314948,0.00000000,
4.894493,0.6309,-0.2959,0.2765,55.75132360,48.74314948,0.00000000,
4.894872,0.6309,-0.2959,0.2765,55.75132360,48.74314948,0.00000000,
4.912198,0.6309,-0.2959,0.2765,55.75132360,48.74314948,0.00000000,
4.961692,0.6309,-0.2959,0.2765,55.75132360,48.74314948,0.00000000,
4.962510,0.6309,-0.2959,0.2765,55.75132360,48.74314948,0.00000000,
4.962902,0.1800,-0.9430,0.2086,55.75132360,48.74314948,0.00000000,
4.963500,0.1800,-0.9430,0.2086,55.75132360,48.74314948,0.00000000,
4.979009,0.1800,-0.9430,0.2086,55.75132360,48.74314948,0.00000000,
5.031990,0.0542,-0.3541,-0.5937,55.75132360,48.74314948,0.00000000,
5.033598,0.0542,-0.3541,-0.5937,55.75132360,48.74314948,0.00000000,
5.034038,0.0542,-0.3541,-0.5937,55.75132360,48.74314948,0.00000000,
5.034427,0.0542,-0.3541,-0.5937,55.75132360,48.74314948,0.00000000,
5.034803,0.0542,-0.3541,-0.5937,55.75132360,48.74314948,0.00000000,
5.058926,0.0542,-0.3541,-0.5937,55.75132360,48.74314948,0.00000000,
5.102090,0.0542,-0.3541,-0.5937,55.75132360,48.74314948,0.00000000,
5.103104,0.0542,-0.3541,-0.5937,55.75132360,48.74314948,0.00000000,
5.103550,0.0542,-0.3541,-0.5937,55.75132360,48.74314948,0.00000000,
5.103942,0.1218,-0.4068,0.1097,55.75132360,48.74314948,0.00000000,
5.113797,0.1218,-0.4068,0.1097,55.75132360,48.74314948,0.00000000,
5.173364,0.2224,-0.5373,-0.2176,55.75132360,48.74314948,0.00000000,
5.174910,0.2224,-0.5373,-0.2176,55.75132360,48.74314948,0.00000000,
5.175357,0.2224,-0.5373,-0.2176,55.75132360,48.74314948,0.00000000,
5.175751,0.2224,-0.5373,-0.2176,55.75132360,48.74314948,0.00000000,
5.176131,0.2224,-0.5373,-0.2176,55.75132360,48.74314948,0.00000000,
5.243635,0.2224,-0.5373,-0.2176,55.75132360,48.74314948,0.00000000,
5.245711,0.2224,-0.5373,-0.2176,55.75132360,48.74314948,0.00000000,
5.246474,0.2224,-0.5373,-0.2176,55.75132360,48.74314948,0.00000000,
5.246961,0.5972,-0.0954,-0.6941,55.75132360,48.74314948,0.00000000,
5.247809,0.5972,-0.0954,-0.6941,55.75132360,48.74314948,0.00000000,
5.307866,0.5972,-0.0954,-0.6941,55.75132360,48.74314948,0.00000000,
5.308790,0.5972,-0.0954,-0.6941,55.75132360,48.74314948,0.00000000,
5.309369,0.5972,-0.0954,-0.6941,55.75132360,48.74314948,0.00000000,
5.313541,0.5972,-0.0954,-0.6941,55.75132360,48.74314948,0.00000000,
5.314417,0.5972,-0.0954,-0.6941,55.75132360,48.74314948,0.00000000,
5.314844,0.4735,0.7138,-0.1541,55.75132360,48.74314948,0.00000000,
5.380271,0.4735,0.7138,-0.1541,55.75132360,48.74314948,0.00000000,
5.381689,0.4735,0.7138,-0.1541,55.75132360,48.74314948,0.00000000,
5.382242,0.4735,0.7138,-0.1541,55.75132360,48.74314948,0.00000000,
5.382784,0.4735,0.7138,-0.1541,55.75132360,48.74314948,0.00000000,
5.383295,1.0403,1.1170,0.9257,55.75132360,48.74314948,0.00000000,
5.446565,1.0403,1.1170,0.9257,55.75132360,48.74314948,0.00000000,
5.447576,1.0403,1.1170,0.9257,55.75132360,48.74314948,0.00000000,
5.447976,1.0403,1.1170,0.9257,55.75132360,48.74314948,0.00000000,
5.455188,1.0403,1.1170,0.9257,55.75132360,48.74314948,0.00000000,
5.456034,0.4103,-0.0810,0.1046,55.75132360,48.74314948,0.00000000,
5.456894,0.4103,-0.0810,0.1046,55.75132360,48.74314948,0.00000000,
5.512444,0.4103,-0.0810,0.1046,55.75132360,48.74314948,0.00000000,
5.513844,0.4103,-0.0810,0.1046,55.75132360,48.74314948,0.00000000,
5.524302,0.4103,-0.0810,0.1046,55.75132360,48.74314948,0.00000000,
5.525110,0.7605,-0.4921,0.2231,55.75132360,48.74314948,0.00000000,
5.525869,0.7605,-0.4921,0.2231,55.75132360,48.74314948,0.00000000,
5.568032,0.7605,-0.4921,0.2231,55.75132360,48.74314948,0.00000000,
5.568923,0.7605,-0.4921,0.2231,55.75132330,48.74324746,0.00000000,
5.578995,0.7605,-0.4921,0.2231,55.75132330,48.74324746,0.00000000,
5.593549,0.7605,-0.4921,0.2231,55.75132330,48.74324746,0.00000000,
5.594486,0.0023,-0.0354,-0.7778,55.75132330,48.74324746,0.00000000,
5.595219,0.0023,-0.0354,-0.7778,55.75132330,48.74324746,0.00000000,
5.638576,0.0023,-0.0354,-0.7778,55.75132330,48.74324746,0.00000000,
5.639577,0.0023,-0.0354,-0.7778,55.75132330,48.74324746,0.00000000,
5.656650,0.0023,-0.0354,-0.7778,55.75132330,48.74324746,0.00000000,
5.664451,-0.2187,0.0836,-0.7414,55.75132330,48.74324746,0.00000000,
5.665750,-0.2187,0.0836,-0.7414,55.75132330,48.74324746,0.00000000,
5.690463,-0.2187,0.0836,-0.7414,55.75132330,48.74324746,0.00000000,
5.694689,-0.2187,0.0836,-0.7414,55.75132330,48.74324746,0.00000000,
5.715444,-0.2187,0.0836,-0.7414,55.75132330,48.74324746,0.00000000,
5.734913,-0.2187,0.0836,-0.7414,55.75132330,48.74324746,0.00000000,
5.735749,0.3520,0.0372,0.9361,55.75132330,48.74324746,0.00000000,
5.736453,0.3520,0.0372,0.9361,55.75132330,48.74324746,0.00000000,
5.760534,0.3520,0.0372,0.9361,55.75132330,48.74324746,0.00000000,
5.789969,0.3520,0.0372,0.9361,55.75132330,48.74324746,0.00000000,
5.794088,0.3520,0.0372,0.9361,55.75132330,48.74324746,0.00000000,
5.804530,0.0120,0.2244,-0.1619,55.75132330,48.74324746,0.00000000,
5.806047,0.0120,0.2244,-0.1619,55.75132330,48.74324746,0.00000000,
5.815229,0.0120,0.2244,-0.1619,55.75132330,48.74324746,0.00000000,
5.840668,0.0120,0.2244,-0.1619,55.75132330,48.74324746,0.00000000,
5.857733,0.0120,0.2244,-0.1619,55.75132330,48.74324746,0.00000000,
5.875197,0.0120,0.2244,-0.1619,55.75132330,48.74324746,0.00000000,
5.876271,-0.6186,-0.0925,-0.3834,55.75132330,48.74324746,0.00000000,
5.877016,-0.6186,-0.0925,-0.3834,55.75132330,48.74324746,0.00000000,
5.923611,-0.6186,-0.0925,-0.3834,55.75132330,48.74324746,0.00000000,
5.924731,-0.6186,-0.0925,-0.3834,55.75132330,48.74324746,0.00000000,
5.944116,-0.6186,-0.0925,-0.3834,55.75132330,48.74324746,0.00000000,
5.945133,-0.6186,-0.0925,-0.3834,55.75132330,48.74324746,0.00000000,
5.945574,-0.1741,-0.0579,0.7318,55.75132330,48.74324746,0.00000000,
5.976389,-0.1741,-0.0579,0.7318,55.75132330,48.74324746,0.00000000,
5.977376,-0.1741,-0.0579,0.7318,55.75132330,48.74324746,0.00000000,
6.015358,-0.1156,0.0982,-0.1672,55.75132330,48.74324746,0.00000000,
6.016701,-0.1156,0.0982,-0.1672,55.75132330,48.74324746,0.00000000,
6.017144,-0.1156,0.0982,-0.1672,55.75132330,48.74324746,0.00000000,
6.017508,-0.1156,0.0982,-0.1672,55.75132330,48.74324746,0.00000000,
6.038624,-0.1156,0.0982,-0.1672,55.75132330,48.74324746,0.00000000,
6.057930,-0.1156,0.0982,-0.1672,55.75132330,48.74324746,0.00000000,
6.076929,-0.1156,0.0982,-0.1672,55.75132330,48.74324746,0.00000000,
6.085316,-0.2909,-0.2294,-0.1162,55.75132330,48.74324746,0.00000000,
6.086355,-0.2909,-0.2294,-0.1162,55.75132330,48.74324746,0.00000000,
6.126533,-0.2909,-0.2294,-0.1162,55.75132330,48.74324746,0.00000000,
6.127830,-0.2909,-0.2294,-0.1162,55.75132330,48.74324746,0.00000000,
6.156099,-0.0766,-0.0322,-0.1201,55.75132330,48.74324746,0.00000000,
6.157616,-0.0766,-0.0322,-0.1201,55.75132330,48.74324746,0.00000000,
6.158089,-0.0766,-0.0322,-0.1201,55.75132330,48.74324746,0.00000000,
6.158625,-0.0766,-0.0322,-0.1201,55.75132330,48.74324746,0.00000000,
6.176308,-0.0766,-0.0322,-0.1201,55.75132330,48.74324746,0.00000000,
6.209484,-0.0766,-0.0322,-0.1201,55.75132330,48.74324746,0.00000000,
6.222153,-0.0766,-0.0322,-0.1201,55.75132330,48.74324746,0.00000000,
6.225238,-0.0766,-0.0322,-0.1201,55.75132330,48.74324746,0.00000000,
6.225804,-0.2355,-0.1911,0.0030,55.75132330,48.74324746,0.00000000,
6.255987,-0.2355,-0.1911,0.0030,55.75132330,48.74324746,0.00000000,
6.256886,-0.2355,-0.1911,0.0030,55.75132330,48.74324746,0.00000000,
6.276330,-0.2355,-0.1911,0.0030,55.75132330,48.74324746,0.00000000,
6.297100,-0.2355,-0.1911,0.0030,55.75132330,48.74324746,0.00000000,
6.298752,-0.1531,-0.0442,0.1119,55.75132330,48.74324746,0.00000000,
6.299498,-0.1531,-0.0442,0.1119,55.75132330,48.74324746,0.00000000,
6.342698,-0.1531,-0.0442,0.1119,55.75132330,48.74324746,0.00000000,
6.343718,-0.1531,-0.0442,0.1119,55.75132330,48.74324746,0.00000000,
6.356875,-0.1531,-0.0442,0.1119,55.75132330,48.74324746,0.00000000,
6.367627,-0.0278,-0.0081,0.1079,55.75132330,48.74324746,0.00000000,
6.369299,-0.0278,-0.0081,0.1079,55.75132330,48.74324746,0.00000000,
6.387054,-0.0278,-0.0081,0.1079,55.75132330,48.74324746,0.00000000,
6.413503,-0.0278,-0.0081,0.1079,55.75132330,48.74324746,0.00000000,
6.417772,-0.0278,-0.0081,0.1079,55.75132330,48.74324746,0.00000000,
6.437323,0.0243,0.0570,-0.2026,55.75132330,48.74324746,0.00000000,
6.439029,0.0243,0.0570,-0.2026,55.75132330,48.74324746,0.00000000,
6.439526,0.0243,0.0570,-0.2026,55.75132330,48.74324746,0.00000000,
6.474618,0.0243,0.0570,-0.2026,55.75132330,48.74324746,0.00000000,
6.476410,0.0243,0.0570,-0.2026,55.75132330,48.74324746,0.00000000,
6.506909,0.0243,0.0570,-0.2026,55.75132330,48.74324746,0.00000000,
6.507783,-0.0069,-0.0276,0.0615,55.75132330,48.74324746,0.00000000,
6.508523,-0.0069,-0.0276,0.0615,55.75132330,48.74324746,0.00000000,
6.523797,-0.0069,-0.0276,0.0615,55.75132330,48.74324746,0.00000000,
6.565897,-0.0069,-0.0276,0.0615,55.75132330,48.74324746,0.00000000,
6.567091,-0.0069,-0.0276,0.0615,55.75134525,48.74332712,0.00000000,
6.577677,-0.0069,-0.0276,0.0615,55.75134525,48.74332712,0.00000000,
6.578420,-0.1541,-0.0863,0.0033,55.75134525,48.74332712,0.00000000,
6.579154,-0.1541,-0.0863,0.0033,55.75134525,48.74332712,0.00000000,
6.609739,-0.1541,-0.0863,0.0033,55.75134525,48.74332712,0.00000000,
6.623469,-0.1541,-0.0863,0.0033,55.75134525,48.74332712,0.00000000,
6.647889,-0.0959,0.0406,-0.0142,55.75134525,48.74332712,0.00000000,
6.649170,-0.0959,0.0406,-0.0142,55.75134525,48.74332712,0.00000000,
6.649749,-0.0959,0.0406,-0.0142,55.75134525,48.74332712,0.00000000,
6.661937,-0.0959,0.0406,-0.0142,55.75134525,48.74332712,0.00000000,
6.695156,-0.0959,0.0406,-0.0142,55.75134525,48.74332712,0.00000000,
6.699887,-0.0959,0.0406,-0.0142,55.75134525,48.74332712,0.00000000,
6.718958,0.0164,0.0592,0.0539,55.75134525,48.74332712,0.00000000,
6.720544,0.0164,0.0592,0.0539,55.75134525,48.74332712,0.00000000,
6.721219,0.0164,0.0592,0.0539,55.75134525,48.74332712,0.00000000,
6.775628,0.0164,0.0592,0.0539,55.75134525,48.74332712,0.00000000,
6.776604,0.0164,0.0592,0.0539,55.75134525,48.74332712,0.00000000,
6.788408,-0.0600,0.0072,0.0632,55.75134525,48.74332712,0.00000000,
6.790105,-0.0600,0.0072,0.0632,55.75134525,48.74332712,0.00000000,
6.790553,-0.0600,0.0072,0.0632,55.75134525,48.74332712,0.00000000,
6.808117,-0.0600,0.0072,0.0632,55.75134525,48.74332712,0.00000000,
6.843300,-0.0600,0.0072,0.0632,55.75134525,48.74332712,0.00000000,
6.844558,-0.0600,0.0072,0.0632,55.75134525,48.74332712,0.00000000,
6.858658,-0.0600,0.0072,0.0632,55.75134525,48.74332712,0.00000000,
6.859478,-0.1243,-0.0460,0.1012,55.75134525,48.74332712,0.00000000,
6.860111,-0.1243,-0.0460,0.1012,55.75134525,48.74332712,0.00000000,
6.908892,-0.1243,-0.0460,0.1012,55.75134525,48.74332712,0.00000000,
6.909922,-0.1243,-0.0460,0.1012,55.75134525,48.74332712,0.00000000,
6.929315,-0.1243,-0.0460,0.1012,55.75134525,48.74332712,0.00000000,
6.930578,-0.1290,0.0223,-0.2110,55.75134525,48.74332712,0.00000000,
6.931300,-0.1290,0.0223,-0.2110,55.75134525,48.74332712,0.00000000,
6.976145,-0.1290,0.0223,-0.2110,55.75134525,48.74332712,0.00000000,
6.977273,-0.1290,0.0223,-0.2110,55.75134525,48.74332712,0.00000000,
7.000005,-0.1290,0.0223,-0.2110,55.75134525,48.74332712,0.00000000,
7.001543,-0.1290,0.0223,-0.2110,55.75134525,48.74332712,0.00000000,
7.003599,0.0554,0.0424,0.0281,55.75134525,48.74332712,0.00000000,
7.004549,0.0554,0.0424,0.0281,55.75134525,48.74332712,0.00000000,
7.042381,0.0554,0.0424,0.0281,55.75134525,48.74332712,0.00000000,
7.043497,0.0554,0.0424,0.0281,55.75134525,48.74332712,0.00000000,
7.061423,0.0554,0.0424,0.0281,55.75134525,48.74332712,0.00000000,
7.068689,0.1242,0.0400,0.2549,55.75134525,48.74332712,0.00000000,
7.069980,0.1242,0.0400,0.2549,55.75134525,48.74332712,0.00000000,
7.108587,0.1242,0.0400,0.2549,55.75134525,48.74332712,0.00000000,
7.109762,0.1242,0.0400,0.2549,55.75134525,48.74332712,0.00000000,
7.139600,0.1242,0.0400,0.2549,55.75134525,48.74332712,0.00000000,
7.140594,0.1242,0.0400,0.2549,55.75134525,48.74332712,0.00000000,
7.140999,-0.1340,-0.0427,-0.2523,55.75134525,48.74332712,0.00000000,
7.141768,-0.1340,-0.0427,-0.2523,55.75134525,48.74332712,0.00000000,
7.175395,-0.1340,-0.0427,-0.2523,55.75134525,48.74332712,0.00000000,
7.209951,-0.1451,-0.0587,0.0740,55.75134525,48.74332712,0.00000000,
7.212133,-0.1451,-0.0587,0.0740,55.75134525,48.74332712,0.00000000,
7.212672,-0.1451,-0.0587,0.0740,55.75134525,48.74332712,0.00000000,
7.213201,-0.1451,-0.0587,0.0740,55.75134525,48.74332712,0.00000000,
7.242493,-0.1451,-0.0587,0.0740,55.75134525,48.74332712,0.00000000,
7.243868,-0.1451,-0.0587,0.0740,55.75134525,48.74332712,0.00000000,
7.280666,0.0783,-0.0191,0.0041,55.75134525,48.74332712,0.00000000,
7.282028,0.0783,-0.0191,0.0041,55.75134525,48.74332712,0.00000000,
7.282437,0.0783,-0.0191,0.0041,55.75134525,48.74332712,0.00000000,
7.282822,0.0783,-0.0191,0.0041,55.75134525,48.74332712,0.00000000,
7.307527,0.0783,-0.0191,0.0041,55.75134525,48.74332712,0.00000000,
7.350577,0.0783,-0.0191,0.0041,55.75134525,48.74332712,0.00000000,
7.351862,0.0783,-0.0191,0.0041,55.75134525,48.74332712,0.00000000,
7.352291,0.1891,0.0953,-0.1365,55.75134525,48.74332712,0.00000000,
7.353012,0.1891,0.0953,-0.1365,55.75134525,48.74332712,0.00000000,
7.375220,0.1891,0.0953,-0.1365,55.75134525,48.74332712,0.00000000,
7.420178,0.1891,0.0953,-0.1365,55.75134525,48.74332712,0.00000000,
7.421112,0.1891,0.0953,-0.1365,55.75134525,48.74332712,0.00000000,
7.421504,0.1891,0.0953,-0.1365,55.75134525,48.74332712,0.00000000,
7.421885,0.1891,0.0953,-0.1365,55.75134525,48.74332712,0.00000000,
7.422273,-0.0014,-0.0171,-0.0585,55.75134525,48.74332712,0.00000000,
7.442124,-0.0014,-0.0171,-0.0585,55.75134525,48.74332712,0.00000000,
7.491258,-0.0282,-0.0317,0.0587,55.75134525,48.74332712,0.00000000,
7.493102,-0.0282,-0.0317,0.0587,55.75134525,48.74332712,0.00000000,
7.493627,-0.0282,-0.0317,0.0587,55.75134525,48.74332712,0.00000000,
7.494252,-0.0282,-0.0317,0.0587,55.75134525,48.74332712,0.00000000,
7.508407,-0.0282,-0.0317,0.0587,55.75134525,48.74332712,0.00000000,
7.559112,-0.0282,-0.0317,0.0587,55.75134525,48.74332712,0.00000000,
7.559979,-0.0282,-0.0317,0.0587,55.75135990,48.74370265,0.00000000,
7.560641,0.0244,-0.0090,-0.0619,55.75135990,48.74370265,0.00000000,
7.561249,0.0244,-0.0090,-0.0619,55.75135990,48.74370265,0.00000000,
7.561634,0.0244,-0.0090,-0.0619,55.75135990,48.74370265,0.00000000,
7.630996,0.0244,-0.0090,-0.0619,55.75135990,48.74370265,0.00000000,
7.631900,0.0244,-0.0090,-0.0619,55.75135990,48.74370265,0.00000000,
7.632286,0.0244,-0.0090,-0.0619,55.75135990,48.74370265,0.00000000,
7.632664,0.0733,0.1092,0.0442,55.75135990,48.74370265,0.00000000,
7.633430,0.0733,0.1092,0.0442,55.75135990,48.74370265,0.00000000,
7.641894,0.0733,0.1092,0.0442,55.75135990,48.74370265,0.00000000,
7.702508,0.0733,0.1092,0.0442,55.75135990,48.74370265,0.00000000,
7.703665,0.0733,0.1092,0.0442,55.75135990,48.74370265,0.00000000,
7.704056,0.0733,0.1092,0.0442,55.75135990,48.74370265,0.00000000,
7.704440,0.0733,0.1092,0.0442,55.75135990,48.74370265,0.00000000,
7.704812,-0.0872,-0.0320,-0.1370,55.75135990,48.74370265,0.00000000,
7.772338,-0.0872,-0.0320,-0.1370,55.75135990,48.74370265,0.00000000,
7.773533,-0.0788,0.0182,-0.0620,55.75135990,48.74370265,0.00000000,
7.774698,-0.0788,0.0182,-0.0620,55.75135990,48.74370265,0.00000000,
7.775128,-0.0788,0.0182,-0.0620,55.75135990,48.74370265,0.00000000,
7.775516,-0.0788,0.0182,-0.0620,55.75135990,48.74370265,0.00000000,
7.808684,-0.0788,0.0182,-0.0620,55.75135990,48.74370265,0.00000000,
7.809799,-0.0788,0.0182,-0.0620,55.75135990,48.74370265,0.00000000,
7.843180,-0.0788,0.0182,-0.0620,55.75135990,48.74370265,0.00000000,
7.844266,-0.0788,0.0182,-0.0620,55.75135990,48.74370265,0.00000000,
7.844662,-0.1591,0.1318,-0.2309,55.75135990,48.74370265,0.00000000,
7.845416,-0.1591,0.1318,-0.2309,55.75135990,48.74370265,0.00000000,
7.908997,-0.1591,0.1318,-0.2309,55.75135990,48.74370265,0.00000000,
7.910188,-0.1591,0.1318,-0.2309,55.75135990,48.74370265,0.00000000,
7.910606,-0.1591,0.1318,-0.2309,55.75135990,48.74370265,0.00000000,
7.911452,-0.1887,0.4844,-0.6109,55.75135990,48.74370265,0.00000000,
7.912181,-0.1887,0.4844,-0.6109,55.75135990,48.74370265,0.00000000,
7.975659,-0.1887,0.4844,-0.6109,55.75135990,48.74370265,0.00000000,
7.976723,-0.1887,0.4844,-0.6109,55.75135990,48.74370265,0.00000000,
7.977207,-0.1887,0.4844,-0.6109,55.75135990,48.74370265,0.00000000,
7.982446,1.4862,1.6348,-0.9333,55.75135990,48.74370265,0.00000000,
7.983467,1.4862,1.6348,-0.9333,55.75135990,48.74370265,0.00000000,
7.983952,1.4862,1.6348,-0.9333,55.75135990,48.74370265,0.00000000,
8.042462,1.4862,1.6348,-0.9333,55.75135990,48.74370265,0.00000000,
8.043601,1.4862,1.6348,-0.9333,55.75135990,48.74370265,0.00000000,
8.044013,1.4862,1.6348,-0.9333,55.75135990,48.74370265,0.00000000,
8.052543,2.8023,1.9210,2.7493,55.75135990,48.74370265,0.00000000,
8.053838,2.8023,1.9210,2.7493,55.75135990,48.74370265,0.00000000,
8.108405,2.8023,1.9210,2.7493,55.75135990,48.74370265,0.00000000,
8.109749,2.8023,1.9210,2.7493,55.75135990,48.74370265,0.00000000,
8.110220,2.8023,1.9210,2.7493,55.75135990,48.74370265,0.00000000,
8.124895,0.4098,-0.8210,1.9653,55.75135990,48.74370265,0.00000000,
8.127126,0.4098,-0.8210,1.9653,55.75135990,48.74370265,0.00000000,
8.128036,0.4098,-0.8210,1.9653,55.75135990,48.74370265,0.00000000,
8.175576,0.4098,-0.8210,1.9653,55.75135990,48.74370265,0.00000000,
8.176624,0.4098,-0.8210,1.9653,55.75135990,48.74370265,0.00000000,
8.192715,0.4098,-0.8210,1.9653,55.75135990,48.74370265,0.00000000,
8.193602,-1.7175,-2.5630,-0.8424,55.75135990,48.74370265,0.00000000,
8.194398,-1.7175,-2.5630,-0.8424,55.75135990,48.74370265,0.00000000,
8.242746,-1.7175,-2.5630,-0.8424,55.75135990,48.74370265,0.00000000,
8.243826,-1.7175,-2.5630,-0.8424,55.75135990,48.74370265,0.00000000,
8.263952,-2.9949,-3.1626,-1.5684,55.75135990,48.74370265,0.00000000,
8.265195,-2.9949,-3.1626,-1.5684,55.75135990,48.74370265,0.00000000,
8.265599,-2.9949,-3.1626,-1.5684,55.75135990,48.74370265,0.00000000,
8.265993,-2.9949,-3.1626,-1.5684,55.75135990,48.74370265,0.00000000,
8.308279,-2.9949,-3.1626,-1.5684,55.75135990,48.74370265,0.00000000,
8.309481,-2.9949,-3.1626,-1.5684,55.75135990,48.74370265,0.00000000,
8.335062,-3.5945,-2.5868,-0.5346,55.75135990,48.74370265,0.00000000,
8.338363,-3.5945,-2.5868,-0.5346,55.75135990,48.74370265,0.00000000,
8.339019,-3.5945,-2.5868,-0.5346,55.75135990,48.74370265,0.00000000,
8.375285,-3.5945,-2.5868,-0.5346,55.75135990,48.74370265,0.00000000,
8.376300,-3.5945,-2.5868,-0.5346,55.75135990,48.74370265,0.00000000,
8.404256,-3.5945,-2.5868,-0.5346,55.75135990,48.74370265,0.00000000,
8.405911,-3.5945,-2.5868,-0.5346,55.75135990,48.74370265,0.00000000,
8.406340,-3.5945,-2.5868,-0.5346,55.75135990,48.74370265,0.00000000,
8.406722,-1.0896,-1.0260,1.4139,55.75135990,48.74370265,0.00000000,
8.442096,-1.0896,-1.0260,1.4139,55.75135990,48.74370265,0.00000000,
8.474714,0.9907,0.5648,1.6343,55.75135990,48.74370265,0.00000000,
8.476084,0.9907,0.5648,1.6343,55.75135990,48.74370265,0.00000000,
8.476488,0.9907,0.5648,1.6343,55.75135990,48.74370265,0.00000000,
8.476863,0.9907,0.5648,1.6343,55.75135990,48.74370265,0.00000000,
8.508782,0.9907,0.5648,1.6343,55.75135990,48.74370265,0.00000000,
8.510191,0.9907,0.5648,1.6343,55.75135990,48.74370265,0.00000000,
8.544609,0.9907,0.5648,1.6343,55.75135990,48.74370265,0.00000000,
8.545605,0.9907,0.5648,1.6343,55.75135990,48.74370265,0.00000000,
8.546045,0.9907,0.5648,1.6343,55.75135990,48.74370265,0.00000000,
8.546460,3.0672,1.3570,0.6308,55.75135990,48.74370265,0.00000000,
8.575143,3.0672,1.3570,0.6308,55.75135990,48.74370265,0.00000000,
8.615174,2.2192,0.6593,-0.7050,55.75135584,48.74324525,0.00000000,
8.616577,2.2192,0.6593,-0.7050,55.75135584,48.74324525,0.00000000,
8.616994,2.2192,0.6593,-0.7050,55.75135584,48.74324525,0.00000000,
8.617462,2.2192,0.6593,-0.7050,55.75135584,48.74324525,0.00000000,
8.642182,2.2192,0.6593,-0.7050,55.75135584,48.74324525,0.00000000,
8.685691,2.2192,0.6593,-0.7050,55.75135584,48.74324525,0.00000000,
8.686726,0.8316,0.1686,-1.2222,55.75135584,48.74324525,0.00000000,
8.687479,0.8316,0.1686,-1.2222,55.75135584,48.74324525,0.00000000,
8.687861,0.8316,0.1686,-1.2222,55.75135584,48.74324525,0.00000000,
8.688259,0.8316,0.1686,-1.2222,55.75135584,48.74324525,0.00000000,
8.708206,0.8316,0.1686,-1.2222,55.75135584,48.74324525,0.00000000,
8.755807,0.8316,0.1686,-1.2222,55.75135584,48.74324525,0.00000000,
8.756851,0.8316,0.1686,-1.2222,55.75135584,48.74324525,0.00000000,
8.757322,-0.0129,-0.0839,0.3715,55.75135584,48.74324525,0.00000000,
8.757999,-0.0129,-0.0839,0.3715,55.75135584,48.74324525,0.00000000,
8.775672,-0.0129,-0.0839,0.3715,55.75135584,48.74324525,0.00000000,
8.807332,-0.0129,-0.0839,0.3715,55.75135584,48.74324525,0.00000000,
8.808082,-0.0129,-0.0839,0.3715,55.75135584,48.74324525,0.00000000,
8.824934,-0.0129,-0.0839,0.3715,55.75135584,48.74324525,0.00000000,
8.825744,0.1042,-0.0867,0.7672,55.75135584,48.74324525,0.00000000,
8.826373,0.1042,-0.0867,0.7672,55.75135584,48.74324525,0.00000000,
8.895963,0.5058,0.0698,0.1054,55.75135584,48.74324525,0.00000000,
8.897447,0.5058,0.0698,0.1054,55.75135584,48.74324525,0.00000000,
8.897860,0.5058,0.0698,0.1054,55.75135584,48.74324525,0.00000000,
8.898235,0.5058,0.0698,0.1054,55.75135584,48.74324525,0.00000000,
8.898610,0.5058,0.0698,0.1054,55.75135584,48.74324525,0.00000000,
8.908724,0.5058,0.0698,0.1054,55.75135584,48.74324525,0.00000000,
8.966872,0.6576,0.1427,-0.4744,55.75135584,48.74324525,0.00000000,
8.968323,0.6576,0.1427,-0.4744,55.75135584,48.74324525,0.00000000,
8.968761,0.6576,0.1427,-0.4744,55.75135584,48.74324525,0.00000000,
8.969295,0.6576,0.1427,-0.4744,55.75135584,48.74324525,0.00000000,
8.969693,0.6576,0.1427,-0.4744,55.75135584,48.74324525,0.00000000,
9.036549,0.3700,0.0175,-0.2451,55.75135584,48.74324525,0.00000000,
9.038433,0.3700,0.0175,-0.2451,55.75135584,48.74324525,0.00000000,
9.039261,0.3700,0.0175,-0.2451,55.75135584,48.74324525,0.00000000,
9.040322,0.3700,0.0175,-0.2451,55.75135584,48.74324525,0.00000000,
9.040837,0.3700,0.0175,-0.2451,55.75135584,48.74324525,0.00000000,
9.058087,0.3700,0.0175,-0.2451,55.75135584,48.74324525,0.00000000,
9.107652,0.7128,-0.0746,0.1412,55.75135584,48.74324525,0.00000000,
9.109790,0.7128,-0.0746,0.1412,55.75135584,48.74324525,0.00000000,
9.110253,0.7128,-0.0746,0.1412,55.75135584,48.74324525,0.00000000,
9.110636,0.7128,-0.0746,0.1412,55.75135584,48.74324525,0.00000000,
9.111014,0.7128,-0.0746,0.1412,55.75135584,48.74324525,0.00000000,
9.175773,0.7128,-0.0746,0.1412,55.75135584,48.74324525,0.00000000,
9.176764,0.7128,-0.0746,0.1412,55.75135584,48.74324525,0.00000000,
9.177208,0.7128,-0.0746,0.1412,55.75135584,48.74324525,0.00000000,
9.177599,0.7737,0.0781,-0.4563,55.75135584,48.74324525,0.00000000,
9.178222,0.7737,0.0781,-0.4563,55.75135584,48.74324525,0.00000000,
9.243086,0.7737,0.0781,-0.4563,55.75135584,48.74324525,0.00000000,
9.244168,0.7737,0.0781,-0.4563,55.75135584,48.74324525,0.00000000,
9.244582,0.7737,0.0781,-0.4563,55.75135584,48.74324525,0.00000000,
9.246433,0.7737,0.0781,-0.4563,55.75135584,48.74324525,0.00000000,
9.246822,2.4417,-0.2903,0.8030,55.75135584,48.74324525,0.00000000,
9.247496,2.4417,-0.2903,0.8030,55.75135584,48.74324525,0.00000000,
9.308416,2.4417,-0.2903,0.8030,55.75135584,48.74324525,0.00000000,
9.309543,2.4417,-0.2903,0.8030,55.75135584,48.74324525,0.00000000,
9.310021,2.4417,-0.2903,0.8030,55.75135584,48.74324525,0.00000000,
9.317391,1.9817,-0.6716,0.3283,55.75135584,48.74324525,0.00000000,
9.318793,1.9817,-0.6716,0.3283,55.75135584,48.74324525,0.00000000,
9.348756,1.9817,-0.6716,0.3283,55.75135584,48.74324525,0.00000000,
9.375982,1.9817,-0.6716,0.3283,55.75135584,48.74324525,0.00000000,
9.377746,1.9817,-0.6716,0.3283,55.75135584,48.74324525,0.00000000,
9.387281,1.9817,-0.6716,0.3283,55.75135584,48.74324525,0.00000000,
9.387994,1.9817,-0.6716,0.3283,55.75135584,48.74324525,0.00000000,
9.388503,-1.0019,1.6169,-1.5158,55.75135584,48.74324525,0.00000000,
9.442127,-1.0019,1.6169,-1.5158,55.75135584,48.74324525,0.00000000,
9.442989,-1.0019,1.6169,-1.5158,55.75135584,48.74324525,0.00000000,
9.457881,-2.8919,1.9750,-3.0342,55.75135584,48.74324525,0.00000000,
9.459140,-2.8919,1.9750,-3.0342,55.75135584,48.74324525,0.00000000,
9.459549,-2.8919,1.9750,-3.0342,55.75135584,48.74324525,0.00000000,
9.508871,-2.8919,1.9750,-3.0342,55.75135584,48.74324525,0.00000000,
9.509894,-2.8919,1.9750,-3.0342,55.75135584,48.74324525,0.00000000,
9.510346,-2.8919,1.9750,-3.0342,55.75135584,48.74324525,0.00000000,
9.528456,-2.8919,1.9750,-3.0342,55.75135584,48.74324525,0.00000000,
9.529493,0.9766,-0.2307,1.4008,55.75135584,48.74324525,0.00000000,
9.530213,0.9766,-0.2307,1.4008,55.75135584,48.74324525,0.00000000,
9.558269,0.9766,-0.2307,1.4008,55.75135584,48.74324525,0.00000000,
9.574780,0.9766,-0.2307,1.4008,55.75135584,48.74324525,0.00000000,
9.598587,0.9766,-0.2307,1.4008,55.75129865,48.74306349,0.38999999,
9.599932,-1.2479,1.2173,0.4317,55.75129865,48.74306349,0.38999999,
9.600554,-1.2479,1.2173,0.4317,55.75129865,48.74306349,0.38999999,
9.642778,-1.2479,1.2173,0.4317,55.75129865,48.74306349,0.38999999,
9.643991,-1.2479,1.2173,0.4317,55.75129865,48.74306349,0.38999999,
9.668913,-0.1902,0.9358,-0.1941,55.75129865,48.74306349,0.38999999,
9.670881,-0.1902,0.9358,-0.1941,55.75129865,48.74306349,0.38999999,
9.671878,-0.1902,0.9358,-0.1941,55.75129865,48.74306349,0.38999999,
9.672365,-0.1902,0.9358,-0.1941,55.75129865,48.74306349,0.38999999,
9.708437,-0.1902,0.9358,-0.1941,55.75129865,48.74306349,0.38999999,
9.709374,-0.1902,0.9358,-0.1941,55.75129865,48.74306349,0.38999999,
9.738848,-0.7692,0.4946,0.2526,55.75129865,48.74306349,0.38999999,
9.740206,-0.7692,0.4946,0.2526,55.75129865,48.74306349,0.38999999,
9.740655,-0.7692,0.4946,0.2526,55.75129865,48.74306349,0.38999999,
9.776831,-0.7692,0.4946,0.2526,55.75129865,48.74306349,0.38999999,
9.777936,-0.7692,0.4946,0.2526,55.75129865,48.74306349,0.38999999,
9.809274,-3.5267,2.4813,-0.8496,55.75129865,48.74306349,0.38999999,
9.810827,-3.5267,2.4813,-0.8496,55.75129865,48.74306349,0.38999999,
9.811261,-3.5267,2.4813,-0.8496,55.75129865,48.74306349,0.38999999,
9.811673,-3.5267,2.4813,-0.8496,55.75129865,48.74306349,0.38999999,
9.842815,-3.5267,2.4813,-0.8496,55.75129865,48.74306349,0.38999999,
9.878951,-3.5267,2.4813,-0.8496,55.75129865,48.74306349,0.38999999,
9.879994,-3.5267,2.4813,-0.8496,55.75129865,48.74306349,0.38999999,
9.880407,-3.5267,2.4813,-0.8496,55.75129865,48.74306349,0.38999999,
9.880786,-0.6467,0.9600,2.0018,55.75129865,48.74306349,0.38999999,
9.909921,-0.6467,0.9600,2.0018,55.75129865,48.74306349,0.38999999,
9.910869,-0.6467,0.9600,2.0018,55.75129865,48.74306349,0.38999999,
9.949192,-2.0079,0.8911,-2.0017,55.75129865,48.74306349,0.38999999,
9.950389,-2.0079,0.8911,-2.0017,55.75129865,48.74306349,0.38999999,
9.950797,-2.0079,0.8911,-2.0017,55.75129865,48.74306349,0.38999999,
9.951178,-2.0079,0.8911,-2.0017,55.75129865,48.74306349,0.38999999,
9.975515,-2.0079,0.8911,-2.0017,55.75129865,48.74306349,0.38999999,
10.019774,-0.1211,-0.4586,-1.8750,55.75129865,48.74306349,0.38999999,
10.021234,-0.1211,-0.4586,-1.8750,55.75129865,48.74306349,0.38999999,
10.021671,-0.1211,-0.4586,-1.8750,55.75129865,48.74306349,0.38999999,
10.022051,-0.1211,-0.4586,-1.8750,55.75129865,48.74306349,0.38999999,
10.042538,-0.1211,-0.4586,-1.8750,55.75129865,48.74306349,0.38999999,
10.059298,-0.1211,-0.4586,-1.8750,55.75129865,48.74306349,0.38999999,
10.090101,-0.1211,-0.4586,-1.8750,55.75129865,48.74306349,0.38999999,
10.091054,-0.1211,-0.4586,-1.8750,55.75129865,48.74306349,0.38999999,
10.091571,-2.9370,-0.7458,-2.1275,55.75129865,48.74306349,0.38999999,
10.092280,-2.9370,-0.7458,-2.1275,55.75129865,48.74306349,0.38999999,
10.160586,0.3106,-1.8866,-0.8296,55.75129865,48.74306349,0.38999999,
10.162426,0.3106,-1.8866,-0.8296,55.75129865,48.74306349,0.38999999,
10.162917,0.3106,-1.8866,-0.8296,55.75129865,48.74306349,0.38999999,
10.163341,0.3106,-1.8866,-0.8296,55.75129865,48.74306349,0.38999999,
10.163770,0.3106,-1.8866,-0.8296,55.75129865,48.74306349,0.38999999,
10.179916,0.3106,-1.8866,-0.8296,55.75129865,48.74306349,0.38999999,
10.230838,0.3106,-1.8866,-0.8296,55.75129865,48.74306349,0.38999999,
10.232122,0.3106,-1.8866,-0.8296,55.75129865,48.74306349,0.38999999,
10.232578,0.3106,-1.8866,-0.8296,55.75129865,48.74306349,0.38999999,
10.233004,0.3106,-1.8866,-0.8296,55.75129865,48.74306349,0.38999999,
10.233604,1.7760,-0.2693,-0.1048,55.75129865,48.74306349,0.38999999,
10.300463,4.9758,2.1730,5.1184,55.75129865,48.74306349,0.38999999,
10.301504,4.9758,2.1730,5.1184,55.75129865,48.74306349,0.38999999,
10.301912,4.9758,2.1730,5.1184,55.75129865,48.74306349,0.38999999,
10.302292,4.9758,2.1730,5.1184,55.75129865,48.74306349,0.38999999,
10.302813,4.9758,2.1730,5.1184,55.75129865,48.74306349,0.38999999,
10.372441,4.9758,2.1730,5.1184,55.75129865,48.74306349,0.38999999,
10.373778,4.9758,2.1730,5.1184,55.75129865,48.74306349,0.38999999,
10.374245,4.9758,2.1730,5.1184,55.75129865,48.74306349,0.38999999,
10.374677,4.9758,2.1730,5.1184,55.75129865,48.74306349,0.38999999,
10.375065,4.9758,2.1730,5.1184,55.75129865,48.74306349,0.38999999,
10.375476,3.8408,4.3783,2.8937,55.75129865,48.74306349,0.38999999,
10.436612,3.8408,4.3783,2.8937,55.75129865,48.74306349,0.38999999,
10.437739,3.8408,4.3783,2.8937,55.75129865,48.74306349,0.38999999,
10.438155,3.8408,4.3783,2.8937,55.75129865,48.74306349,0.38999999,
10.440836,3.8408,4.3783,2.8937,55.75129865,48.74306349,0.38999999,
10.441762,-0.7985,1.1599,0.9735,55.75129865,48.74306349,0.38999999,
10.508519,-0.7985,1.1599,0.9735,55.75129865,48.74306349,0.38999999,
10.509385,-0.7985,1.1599,0.9735,55.75129865,48.74306349,0.38999999,
10.509768,-0.7985,1.1599,0.9735,55.75129865,48.74306349,0.38999999,
10.511036,-0.7985,1.1599,0.9735,55.75129865,48.74306349,0.38999999,
10.511474,-2.1517,0.3379,-4.0198,55.75129865,48.74306349,0.38999999,
10.512140,-2.1517,0.3379,-4.0198,55.75129865,48.74306349,0.38999999,
10.557967,-2.1517,0.3379,-4.0198,55.75129865,48.74306349,0.38999999,
10.559171,-2.1517,0.3379,-4.0198,55.75129865,48.74306349,0.38999999,
10.575492,-2.1517,0.3379,-4.0198,55.75129865,48.74306349,0.38999999,
10.582007,-4.1492,-0.5842,-4.1681,55.75129865,48.74306349,0.38999999,
10.582689,-4.1492,-0.5842,-4.1681,55.75129865,48.74306349,0.38999999,
10.613384,-4.1492,-0.5842,-4.1681,55.75129865,48.74306349,0.38999999,
10.614399,-4.1492,-0.5842,-4.1681,55.75129865,48.74306349,0.38999999,
10.643889,-4.1492,-0.5842,-4.1681,55.75129865,48.74306349,0.38999999,
10.652409,-5.1848,-0.6671,-0.6394,55.75129865,48.74306349,0.38999999,
10.653583,-5.1848,-0.6671,-0.6394,55.75129865,48.74306349,0.38999999,
10.654158,-5.1848,-0.6671,-0.6394,55.75129865,48.74306349,0.38999999,
10.709674,-5.1848,-0.6671,-0.6394,55.75129865,48.74306349,0.38999999,
10.710941,-5.1848,-0.6671,-0.6394,55.75129865,48.74306349,0.38999999,
10.721842,-5.1848,-0.6671,-0.6394,55.75129865,48.74306349,0.38999999,
10.722485,-5.1848,-0.6671,-0.6394,55.75129865,48.74306349,0.38999999,
10.722890,-0.8257,2.3892,7.3234,55.75129865,48.74306349,0.38999999,
10.775383,-0.8257,2.3892,7.3234,55.75129865,48.74306349,0.38999999,
10.776444,-0.8257,2.3892,7.3234,55.75129865,48.74306349,0.38999999,
10.776852,-0.8257,2.3892,7.3234,55.75129865,48.74306349,0.38999999,
10.794667,-0.8257,2.3892,7.3234,55.75129865,48.74306349,0.38999999,
10.795586,-0.8257,2.3892,7.3234,55.75129865,48.74306349,0.38999999,
10.796010,1.6142,-0.7450,12.0534,55.75129865,48.74306349,0.38999999,
10.842701,1.6142,-0.7450,12.0534,55.75129865,48.74306349,0.38999999,
10.843926,1.6142,-0.7450,12.0534,55.75129865,48.74306349,0.38999999,
10.863226,1.6142,-0.7450,12.0534,55.75129865,48.74306349,0.38999999,
10.864241,1.6142,-0.7450,12.0534,55.75129865,48.74306349,0.38999999,
10.864642,0.4427,-1.8470,-4.9991,55.75129865,48.74306349,0.38999999,
10.908499,0.4427,-1.8470,-4.9991,55.75129865,48.74306349,0.38999999,
10.909483,0.4427,-1.8470,-4.9991,55.75129865,48.74306349,0.38999999,
10.933816,0.3355,-4.9011,-6.1284,55.75129865,48.74306349,0.38999999,
10.935255,0.3355,-4.9011,-6.1284,55.75129865,48.74306349,0.38999999,
10.935723,0.3355,-4.9011,-6.1284,55.75129865,48.74306349,0.38999999,
10.936316,0.3355,-4.9011,-6.1284,55.75129865,48.74306349,0.38999999,
10.975530,0.3355,-4.9011,-6.1284,55.75129865,48.74306349,0.38999999,
10.976519,0.3355,-4.9011,-6.1284,55.75129865,48.74306349,0.38999999,
11.003160,0.3355,-4.9011,-6.1284,55.75129865,48.74306349,0.38999999,
11.004208,0.9946,-3.7856,-9.7903,55.75129865,48.74306349,0.38999999,
11.004930,0.9946,-3.7856,-9.7903,55.75129865,48.74306349,0.38999999,
11.041986,0.9946,-3.7856,-9.7903,55.75129865,48.74306349,0.38999999,
11.043086,0.9946,-3.7856,-9.7903,55.75129865,48.74306349,0.38999999,
11.058445,0.9946,-3.7856,-9.7903,55.75129865,48.74306349,0.38999999,
11.073942,2.1737,-2.8697,-2.6865,55.75129865,48.74306349,0.38999999,
11.075412,2.1737,-2.8697,-2.6865,55.75129865,48.74306349,0.38999999,
11.075863,2.1737,-2.8697,-2.6865,55.75129865,48.74306349,0.38999999,
11.108131,2.1737,-2.8697,-2.6865,55.75129865,48.74306349,0.38999999,
11.144127,2.1737,-2.8697,-2.6865,55.75129865,48.74306349,0.38999999,
11.145211,2.1737,-2.8697,-2.6865,55.75129865,48.74306349,0.38999999,
11.146244,6.7395,1.7891,3.6192,55.75129865,48.74306349,0.38999999,
11.147048,6.7395,1.7891,3.6192,55.75129865,48.74306349,0.38999999,
11.176276,6.7395,1.7891,3.6192,55.75129865,48.74306349,0.38999999,
11.178906,6.7395,1.7891,3.6192,55.75129865,48.74306349,0.38999999,
11.214076,6.5107,3.5371,11.4470,55.75129865,48.74306349,0.38999999,
11.215487,6.5107,3.5371,11.4470,55.75134050,48.74273299,1.34000003,
11.216076,6.5107,3.5371,11.4470,55.75134050,48.74273299,1.34000003,
11.216488,6.5107,3.5371,11.4470,55.75134050,48.74273299,1.34000003,
11.242278,6.5107,3.5371,11.4470,55.75134050,48.74273299,1.34000003,
11.284607,6.5107,3.5371,11.4470,55.75134050,48.74273299,1.34000003,
11.285561,6.5107,3.5371,11.4470,55.75134050,48.74273299,1.34000003,
11.286154,6.5107,3.5371,11.4470,55.75134050,48.74273299,1.34000003,
11.286557,-1.2292,2.7667,-3.3976,55.75134050,48.74273299,1.34000003,
11.307763,-1.2292,2.7667,-3.3976,55.75134050,48.74273299,1.34000003,
11.355456,-4.2183,-0.5816,-3.3681,55.75134050,48.74273299,1.34000003,
11.357250,-4.2183,-0.5816,-3.3681,55.75134050,48.74273299,1.34000003,
11.357764,-4.2183,-0.5816,-3.3681,55.75134050,48.74273299,1.34000003,
11.358215,-4.2183,-0.5816,-3.3681,55.75134050,48.74273299,1.34000003,
11.358637,-4.2183,-0.5816,-3.3681,55.75134050,48.74273299,1.34000003,
11.375248,-4.2183,-0.5816,-3.3681,55.75134050,48.74273299,1.34000003,
11.424669,-4.2183,-0.5816,-3.3681,55.75134050,48.74273299,1.34000003,
11.425535,-4.2183,-0.5816,-3.3681,55.75134050,48.74273299,1.34000003,
11.425956,-4.9668,-1.7703,-1.1633,55.75134050,48.74273299,1.34000003,
11.426608,-4.9668,-1.7703,-1.1633,55.75134050,48.74273299,1.34000003,
11.442173,-4.9668,-1.7703,-1.1633,55.75134050,48.74273299,1.34000003,
11.495274,-4.1953,-1.7393,1.4704,55.75134050,48.74273299,1.34000003,
11.497260,-4.1953,-1.7393,1.4704,55.75134050,48.74273299,1.34000003,
11.497961,-4.1953,-1.7393,1.4704,55.75134050,48.74273299,1.34000003,
11.498398,-4.1953,-1.7393,1.4704,55.75134050,48.74273299,1.34000003,
11.498807,-4.1953,-1.7393,1.4704,55.75134050,48.74273299,1.34000003,
11.558710,-4.1953,-1.7393,1.4704,55.75134050,48.74273299,1.34000003,
11.560435,-4.1953,-1.7393,1.4704,55.75134050,48.74273299,1.34000003,
11.561291,-4.1953,-1.7393,1.4704,55.75134050,48.74273299,1.34000003,
11.564769,-0.2073,3.0023,10.3699,55.75134050,48.74273299,1.34000003,
11.565749,-0.2073,3.0023,10.3699,55.75134050,48.74273299,1.34000003,
11.574893,-0.2073,3.0023,10.3699,55.75134050,48.74273299,1.34000003,
11.635444,2.6622,1.5868,12.6852,55.75134050,48.74273299,1.34000003,
11.636873,2.6622,1.5868,12.6852,55.75134050,48.74273299,1.34000003,
11.637366,2.6622,1.5868,12.6852,55.75134050,48.74273299,1.34000003,
11.637774,2.6622,1.5868,12.6852,55.75134050,48.74273299,1.34000003,
11.638175,2.6622,1.5868,12.6852,55.75134050,48.74273299,1.34000003,
11.705450,2.6622,1.5868,12.6852,55.75134050,48.74273299,1.34000003,
11.706356,2.6622,1.5868,12.6852,55.75134050,48.74273299,1.34000003,
11.706745,2.6622,1.5868,12.6852,55.75134050,48.74273299,1.34000003,
11.707135,-0.1583,-1.0581,-3.1626,55.75134050,48.74273299,1.34000003,
11.707755,-0.1583,-1.0581,-3.1626,55.75134050,48.74273299,1.34000003,
11.776953,-0.1583,-1.0581,-3.1626,55.75134050,48.74273299,1.34000003,
11.778277,-0.1583,-1.0581,-3.1626,55.75134050,48.74273299,1.34000003,
11.778699,-0.1583,-1.0581,-3.1626,55.75134050,48.74273299,1.34000003,
11.779111,-0.0298,-3.4261,-7.6115,55.75134050,48.74273299,1.34000003,
11.779825,-0.0298,-3.4261,-7.6115,55.75134050,48.74273299,1.34000003,
11.780203,-0.0298,-3.4261,-7.6115,55.75134050,48.74273299,1.34000003,
11.809372,-0.0298,-3.4261,-7.6115,55.75134050,48.74273299,1.34000003,
11.842942,-0.0298,-3.4261,-7.6115,55.75134050,48.74273299,1.34000003,
11.844008,-0.0298,-3.4261,-7.6115,55.75134050,48.74273299,1.34000003,
11.846734,1.3990,-4.7908,-5.9256,55.75134050,48.74273299,1.34000003,
11.847712,1.3990,-4.7908,-5.9256,55.75134050,48.74273299,1.34000003,
11.867915,1.3990,-4.7908,-5.9256,55.75134050,48.74273299,1.34000003,
11.909261,1.3990,-4.7908,-5.9256,55.75134050,48.74273299,1.34000003,
11.910308,1.3990,-4.7908,-5.9256,55.75134050,48.74273299,1.34000003,
11.916866,3.5093,-6.0577,1.1798,55.75134050,48.74273299,1.34000003,
11.918397,3.5093,-6.0577,1.1798,55.75134050,48.74273299,1.34000003,
11.918821,3.5093,-6.0577,1.1798,55.75134050,48.74273299,1.34000003,
11.970152,3.5093,-6.0577,1.1798,55.75134050,48.74273299,1.34000003,
11.971314,3.5093,-6.0577,1.1798,55.75134050,48.74273299,1.34000003,
11.976241,3.5093,-6.0577,1.1798,55.75134050,48.74273299,1.34000003,
11.987067,-2.3665,0.3899,-8.7353,55.75134050,48.74273299,1.34000003,
11.988778,-2.3665,0.3899,-8.7353,55.75134050,48.74273299,1.34000003,
12.042619,-2.3665,0.3899,-8.7353,55.75134050,48.74273299,1.34000003,
12.044163,-2.3665,0.3899,-8.7353,55.75134050,48.74273299,1.34000003,
12.044877,-2.3665,0.3899,-8.7353,55.75134050,48.74273299,1.34000003,
12.056777,8.1372,1.2937,15.0748,55.75134050,48.74273299,1.34000003,
12.058510,8.1372,1.2937,15.0748,55.75134050,48.74273299,1.34000003,
12.058942,8.1372,1.2937,15.0748,55.75134050,48.74273299,1.34000003,
12.108624,8.1372,1.2937,15.0748,55.75134050,48.74273299,1.34000003,
12.109692,8.1372,1.2937,15.0748,55.75134050,48.74273299,1.34000003,
12.128566,8.1372,1.2937,15.0748,55.75134050,48.74273299,1.34000003,
12.129937,3.2006,3.3516,-4.9709,55.75134050,48.74273299,1.34000003,
12.130783,3.2006,3.3516,-4.9709,55.75134050,48.74273299,1.34000003,
12.175156,3.2006,3.3516,-4.9709,55.75134050,48.74273299,1.34000003,
12.176938,3.2006,3.3516,-4.9709,55.75134050,48.74273299,1.34000003,
12.197139,3.2006,3.3516,-4.9709,55.75134050,48.74273299,1.34000003,
12.198109,3.2006,3.3516,-4.9709,55.75135262,48.74274662,1.89999998,
12.198763,-2.7379,-1.1384,-0.6053,55.75135262,48.74274662,1.89999998,
12.199332,-2.7379,-1.1384,-0.6053,55.75135262,48.74274662,1.89999998,
12.243228,-2.7379,-1.1384,-0.6053,55.75135262,48.74274662,1.89999998,
12.244562,-2.7379,-1.1384,-0.6053,55.75135262,48.74274662,1.89999998,
12.267303,-3.8392,-2.1317,-1.2503,55.75135262,48.74274662,1.89999998,
12.268462,-3.8392,-2.1317,-1.2503,55.75135262,48.74274662,1.89999998,
12.268880,-3.8392,-2.1317,-1.2503,55.75135262,48.74274662,1.89999998,
12.308956,-3.8392,-2.1317,-1.2503,55.75135262,48.74274662,1.89999998,
12.310491,-3.8392,-2.1317,-1.2503,55.75135262,48.74274662,1.89999998,
12.338417,-3.2219,-1.7779,-0.9951,55.75135262,48.74274662,1.89999998,
12.339861,-3.2219,-1.7779,-0.9951,55.75135262,48.74274662,1.89999998,
12.340263,-3.2219,-1.7779,-0.9951,55.75135262,48.74274662,1.89999998,
12.340640,-3.2219,-1.7779,-0.9951,55.75135262,48.74274662,1.89999998,
12.377262,-3.2219,-1.7779,-0.9951,55.75135262,48.74274662,1.89999998,
12.410208,-1.5535,0.0227,3.0648,55.75135262,48.74274662,1.89999998,
12.412838,-1.5535,0.0227,3.0648,55.75135262,48.74274662,1.89999998,
12.414077,-1.5535,0.0227,3.0648,55.75135262,48.74274662,1.89999998,
12.415165,-1.5535,0.0227,3.0648,55.75135262,48.74274662,1.89999998,
12.443600,-1.5535,0.0227,3.0648,55.75135262,48.74274662,1.89999998,
12.445614,-1.5535,0.0227,3.0648,55.75135262,48.74274662,1.89999998,
12.479569,-1.5535,0.0227,3.0648,55.75135262,48.74274662,1.89999998,
12.483465,-1.5535,0.0227,3.0648,55.75135262,48.74274662,1.89999998,
12.484741,1.8472,1.0137,5.7550,55.75135262,48.74274662,1.89999998,
12.486672,1.8472,1.0137,5.7550,55.75135262,48.74274662,1.89999998,
12.510122,1.8472,1.0137,5.7550,55.75135262,48.74274662,1.89999998,
12.550376,1.8472,1.0137,5.7550,55.75135262,48.74274662,1.89999998,
12.552683,1.8472,1.0137,5.7550,55.75135262,48.74274662,1.89999998,
12.554812,0.5115,0.9047,1.0743,55.75135262,48.74274662,1.89999998,
12.556692,0.5115,0.9047,1.0743,55.75135262,48.74274662,1.89999998,
12.559463,0.5115,0.9047,1.0743,55.75135262,48.74274662,1.89999998,
12.619742,0.9869,0.3137,-3.3978,55.75135262,48.74274662,1.89999998,
12.622932,0.9869,0.3137,-3.3978,55.75135262,48.74274662,1.89999998,
12.624074,0.9869,0.3137,-3.3978,55.75135262,48.74274662,1.89999998,
12.625236,0.9869,0.3137,-3.3978,55.75135262,48.74274662,1.89999998,
12.626373,0.9869,0.3137,-3.3978,55.75135262,48.74274662,1.89999998,
12.642666,0.9869,0.3137,-3.3978,55.75135262,48.74274662,1.89999998,
12.691071,0.9869,0.3137,-3.3978,55.75135262,48.74274662,1.89999998,
12.693150,0.9869,0.3137,-3.3978,55.75135262,48.74274662,1.89999998,
12.694265,3.0108,1.2268,-4.6637,55.75135262,48.74274662,1.89999998,
12.695950,3.0108,1.2268,-4.6637,55.75135262,48.74274662,1.89999998,
12.709772,3.0108,1.2268,-4.6637,55.75135262,48.74274662,1.89999998,
12.761513,3.0108,1.2268,-4.6637,55.75135262,48.74274662,1.89999998,
12.763635,3.1802,1.5286,-4.6832,55.75135262,48.74274662,1.89999998,
12.765963,3.1802,1.5286,-4.6832,55.75135262,48.74274662,1.89999998,
12.767186,3.1802,1.5286,-4.6832,55.75135262,48.74274662,1.89999998,
12.768325,3.1802,1.5286,-4.6832,55.75135262,48.74274662,1.89999998,
12.787407,3.1802,1.5286,-4.6832,55.75135262,48.74274662,1.89999998,
12.808859,3.1802,1.5286,-4.6832,55.75135262,48.74274662,1.89999998,
12.830232,-2.1625,-1.3461,2.0836,55.75135262,48.74274662,1.89999998,
12.831823,-2.1625,-1.3461,2.0836,55.75135262,48.74274662,1.89999998,
12.832427,-2.1625,-1.3461,2.0836,55.75135262,48.74274662,1.89999998,
12.842644,-2.1625,-1.3461,2.0836,55.75135262,48.74274662,1.89999998,
12.901480,-2.1625,-1.3461,2.0836,55.75135262,48.74274662,1.89999998,
12.903395,-2.1625,-1.3461,2.0836,55.75135262,48.74274662,1.89999998,
12.904525,-2.1625,-1.3461,2.0836,55.75135262,48.74274662,1.89999998,
12.905766,-3.2309,-1.1176,3.3880,55.75135262,48.74274662,1.89999998,
12.907452,-3.2309,-1.1176,3.3880,55.75135262,48.74274662,1.89999998,
12.972391,-3.2309,-1.1176,3.3880,55.75135262,48.74274662,1.89999998,
12.974393,-3.2309,-1.1176,3.3880,55.75135262,48.74274662,1.89999998,
12.975589,-3.2309,-1.1176,3.3880,55.75135262,48.74274662,1.89999998,
12.976675,2.9252,-1.4302,8.9684,55.75135262,48.74274662,1.89999998,
12.978628,2.9252,-1.4302,8.9684,55.75135262,48.74274662,1.89999998,
12.993135,2.9252,-1.4302,8.9684,55.75135262,48.74274662,1.89999998,
13.042461,2.9252,-1.4302,8.9684,55.75135262,48.74274662,1.89999998,
13.045162,2.9252,-1.4302,8.9684,55.75135262,48.74274662,1.89999998,
13.046636,2.9252,-1.4302,8.9684,55.75135262,48.74274662,1.89999998,
13.048029,2.1870,-2.3412,0.5973,55.75135262,48.74274662,1.89999998,
13.050418,2.1870,-2.3412,0.5973,55.75135262,48.74274662,1.89999998,
13.064078,2.1870,-2.3412,0.5973,55.75135262,48.74274662,1.89999998,
13.110440,2.1870,-2.3412,0.5973,55.75135262,48.74274662,1.89999998,
13.112372,2.1870,-2.3412,0.5973,55.75135262,48.74274662,1.89999998,
13.113638,-0.5033,-0.5768,-7.0484,55.75135262,48.74274662,1.89999998,
13.115392,-0.5033,-0.5768,-7.0484,55.75135262,48.74274662,1.89999998,
13.178454,-0.5033,-0.5768,-7.0484,55.75135262,48.74274662,1.89999998,
13.180632,-0.5033,-0.5768,-7.0484,55.75135262,48.74274662,1.89999998,
13.181919,-0.5033,-0.5768,-7.0484,55.75135262,48.74274662,1.89999998,
13.183104,-0.5033,-0.5768,-7.0484,55.75135262,48.74274662,1.89999998,
13.184240,-1.6634,-1.5066,-4.8590,55.75135262,48.74274662,1.89999998,
13.186110,-1.6634,-1.5066,-4.8590,55.75135262,48.74274662,1.89999998,
13.243252,-1.6634,-1.5066,-4.8590,55.75135262,48.74274662,1.89999998,
13.244848,-1.6634,-1.5066,-4.8590,55.75135200,48.74276269,1.41999996,
13.246311,-1.6634,-1.5066,-4.8590,55.75135200,48.74276269,1.41999996,
13.251572,-2.8140,-1.7821,-1.2275,55.75135200,48.74276269,1.41999996,
13.253738,-2.8140,-1.7821,-1.2275,55.75135200,48.74276269,1.41999996,
13.282499,-2.8140,-1.7821,-1.2275,55.75135200,48.74276269,1.41999996,
13.308560,-2.8140,-1.7821,-1.2275,55.75135200,48.74276269,1.41999996,
13.310507,-2.8140,-1.7821,-1.2275,55.75135200,48.74276269,1.41999996,
13.322865,-2.8140,-1.7821,-1.2275,55.75135200,48.74276269,1.41999996,
13.324764,-2.9196,1.4004,1.5222,55.75135200,48.74276269,1.41999996,
13.326586,-2.9196,1.4004,1.5222,55.75135200,48.74276269,1.41999996,
13.377364,-2.9196,1.4004,1.5222,55.75135200,48.74276269,1.41999996,
13.379533,-2.9196,1.4004,1.5222,55.75135200,48.74276269,1.41999996,
13.392155,-2.9196,1.4004,1.5222,55.75135200,48.74276269,1.41999996,
13.394215,-2.9196,1.4004,1.5222,55.75135200,48.74276269,1.41999996,
13.395347,-2.0012,3.3990,4.2960,55.75135200,48.74276269,1.41999996,
13.443691,-2.0012,3.3990,4.2960,55.75135200,48.74276269,1.41999996,
13.445815,-2.0012,3.3990,4.2960,55.75135200,48.74276269,1.41999996,
13.447187,-2.0012,3.3990,4.2960,55.75135200,48.74276269,1.41999996,
13.463690,-0.9652,2.2365,7.3069,55.75135200,48.74276269,1.41999996,
13.466073,-0.9652,2.2365,7.3069,55.75135200,48.74276269,1.41999996,
13.467382,-0.9652,2.2365,7.3069,55.75135200,48.74276269,1.41999996,
13.511231,-0.9652,2.2365,7.3069,55.75135200,48.74276269,1.41999996,
13.514181,-0.9652,2.2365,7.3069,55.75135200,48.74276269,1.41999996,
13.533907,-0.9652,2.2365,7.3069,55.75135200,48.74276269,1.41999996,
13.536084,-1.7160,0.2990,2.5937,55.75135200,48.74276269,1.41999996,
13.538232,-1.7160,0.2990,2.5937,55.75135200,48.74276269,1.41999996,
13.558803,-1.7160,0.2990,2.5937,55.75135200,48.74276269,1.41999996,
13.575960,-1.7160,0.2990,2.5937,55.75135200,48.74276269,1.41999996,
13.606232,-1.7160,0.2990,2.5937,55.75135200,48.74276269,1.41999996,
13.607949,-1.7160,0.2990,2.5937,55.75135200,48.74276269,1.41999996,
13.608810,0.5002,0.4326,-4.7445,55.75135200,48.74276269,1.41999996,
13.610787,0.5002,0.4326,-4.7445,55.75135200,48.74276269,1.41999996,
13.643616,0.5002,0.4326,-4.7445,55.75135200,48.74276269,1.41999996,
13.645591,0.5002,0.4326,-4.7445,55.75135200,48.74276269,1.41999996,
13.673726,-0.2437,-0.9401,-2.8789,55.75135200,48.74276269,1.41999996,
13.676562,-0.2437,-0.9401,-2.8789,55.75135200,48.74276269,1.41999996,
13.677813,-0.2437,-0.9401,-2.8789,55.75135200,48.74276269,1.41999996,
13.709867,-0.2437,-0.9401,-2.8789,55.75135200,48.74276269,1.41999996,
13.711733,-0.2437,-0.9401,-2.8789,55.75135200,48.74276269,1.41999996,
13.743803,-0.2437,-0.9401,-2.8789,55.75135200,48.74276269,1.41999996,
13.746347,-0.2437,-0.9401,-2.8789,55.75135200,48.74276269,1.41999996,
13.747653,-1.1528,-1.8780,-3.4846,55.75135200,48.74276269,1.41999996,
13.749837,-1.1528,-1.8780,-3.4846,55.75135200,48.74276269,1.41999996,
13.776549,-1.1528,-1.8780,-3.4846,55.75135200,48.74276269,1.41999996,
13.808768,-1.1528,-1.8780,-3.4846,55.75135200,48.74276269,1.41999996,
13.810567,-1.1528,-1.8780,-3.4846,55.75135200,48.74276269,1.41999996,
13.812661,0.0107,-1.3851,1.0296,55.75135200,48.74276269,1.41999996,
13.813792,0.0107,-1.3851,1.0296,55.75135200,48.74276269,1.41999996,
13.843547,0.0107,-1.3851,1.0296,55.75135200,48.74276269,1.41999996,
13.845351,0.0107,-1.3851,1.0296,55.75135200,48.74276269,1.41999996,
13.884991,0.0107,-1.3851,1.0296,55.75135200,48.74276269,1.41999996,
13.888030,-0.1432,-2.2784,5.0049,55.75135200,48.74276269,1.41999996,
13.890445,-0.1432,-2.2784,5.0049,55.75135200,48.74276269,1.41999996,
13.891721,-0.1432,-2.2784,5.0049,55.75135200,48.74276269,1.41999996,
13.910570,-0.1432,-2.2784,5.0049,55.75135200,48.74276269,1.41999996,
13.954858,-0.1432,-2.2784,5.0049,55.75135200,48.74276269,1.41999996,
13.956697,-0.1432,-2.2784,5.0049,55.75135200,48.74276269,1.41999996,
13.957996,-0.1432,-2.2784,5.0049,55.75135200,48.74276269,1.41999996,
13.959126,6.0010,0.1768,0.4686,55.75135200,48.74276269,1.41999996,
13.976503,6.0010,0.1768,0.4686,55.75135200,48.74276269,1.41999996,
14.025757,2.9561,-1.3912,-0.1367,55.75135200,48.74276269,1.41999996,
14.029842,2.9561,-1.3912,-0.1367,55.75135200,48.74276269,1.41999996,
14.031777,2.9561,-1.3912,-0.1367,55.75135200,48.74276269,1.41999996,
14.033554,2.9561,-1.3912,-0.1367,55.75135200,48.74276269,1.41999996,
14.034932,2.9561,-1.3912,-0.1367,55.75135200,48.74276269,1.41999996,
14.059163,2.9561,-1.3912,-0.1367,55.75135200,48.74276269,1.41999996,
14.094771,-0.3099,0.2896,-4.3254,55.75135200,48.74276269,1.41999996,
14.097285,-0.3099,0.2896,-4.3254,55.75135200,48.74276269,1.41999996,
14.099021,-0.3099,0.2896,-4.3254,55.75135200,48.74276269,1.41999996,
14.100565,-0.3099,0.2896,-4.3254,55.75135200,48.74276269,1.41999996,
14.109709,-0.3099,0.2896,-4.3254,55.75135200,48.74276269,1.41999996,
14.166155,-0.3099,0.2896,-4.3254,55.75135200,48.74276269,1.41999996,
14.172161,-1.7039,0.1710,-2.1723,55.75135200,48.74276269,1.41999996,
14.174126,-1.7039,0.1710,-2.1723,55.75135200,48.74276269,1.41999996,
14.175637,-1.7039,0.1710,-2.1723,55.75135200,48.74276269,1.41999996,
14.176800,-1.7039,0.1710,-2.1723,55.75135200,48.74276269,1.41999996,
14.235330,-1.7039,0.1710,-2.1723,55.75135200,48.74276269,1.41999996,
14.236614,-1.7039,0.1710,-2.1723,55.75136548,48.74277251,1.86000001,
14.237742,-1.7039,0.1710,-2.1723,55.75136548,48.74277251,1.86000001,
14.238364,-1.7039,0.1710,-2.1723,55.75136548,48.74277251,1.86000001,
14.238983,-2.6051,-0.7249,-1.8159,55.75136548,48.74277251,1.86000001,
14.306012,-3.0790,0.5738,1.2698,55.75136548,48.74277251,1.86000001,
14.309740,-3.0790,0.5738,1.2698,55.75136548,48.74277251,1.86000001,
14.311070,-3.0790,0.5738,1.2698,55.75136548,48.74277251,1.86000001,
14.312216,-3.0790,0.5738,1.2698,55.75136548,48.74277251,1.86000001,
14.313477,-3.0790,0.5738,1.2698,55.75136548,48.74277251,1.86000001,
14.314732,-3.0790,0.5738,1.2698,55.75136548,48.74277251,1.86000001,
14.327907,-3.0790,0.5738,1.2698,55.75136548,48.74277251,1.86000001,
14.376123,-2.4396,2.8788,4.7475,55.75136548,48.74277251,1.86000001,
14.379078,-2.4396,2.8788,4.7475,55.75136548,48.74277251,1.86000001,
14.380306,-2.4396,2.8788,4.7475,55.75136548,48.74277251,1.86000001,
14.381666,-2.4396,2.8788,4.7475,55.75136548,48.74277251,1.86000001,
14.423246,-2.4396,2.8788,4.7475,55.75136548,48.74277251,1.86000001,
14.425271,-2.4396,2.8788,4.7475,55.75136548,48.74277251,1.86000001,
14.443654,-2.4396,2.8788,4.7475,55.75136548,48.74277251,1.86000001,
14.445734,-1.4564,4.0654,5.1496,55.75136548,48.74277251,1.86000001,
14.447714,-1.4564,4.0654,5.1496,55.75136548,48.74277251,1.86000001,
14.448861,-1.4564,4.0654,5.1496,55.75136548,48.74277251,1.86000001,
14.510216,-1.4564,4.0654,5.1496,55.75136548,48.74277251,1.86000001,
14.512022,-1.4564,4.0654,5.1496,55.75136548,48.74277251,1.86000001,
14.513333,-1.4564,4.0654,5.1496,55.75136548,48.74277251,1.86000001,
14.516471,-0.2379,-0.1807,7.6018,55.75136548,48.74277251,1.86000001,
14.518367,-0.2379,-0.1807,7.6018,55.75136548,48.74277251,1.86000001,
14.558563,-0.2379,-0.1807,7.6018,55.75136548,48.74277251,1.86000001,
14.560487,-0.2379,-0.1807,7.6018,55.75136548,48.74277251,1.86000001,
14.576058,-0.2379,-0.1807,7.6018,55.75136548,48.74277251,1.86000001,
14.588081,-0.2379,-0.1807,7.6018,55.75136548,48.74277251,1.86000001,
14.590664,1.3624,-0.1783,-1.8742,55.75136548,48.74277251,1.86000001,
14.593383,1.3624,-0.1783,-1.8742,55.75136548,48.74277251,1.86000001,
14.627345,1.3624,-0.1783,-1.8742,55.75136548,48.74277251,1.86000001,
14.643575,1.3624,-0.1783,-1.8742,55.75136548,48.74277251,1.86000001,
14.657033,1.3624,-0.1783,-1.8742,55.75136548,48.74277251,1.86000001,
14.658007,1.3624,-0.1783,-1.8742,55.75136548,48.74277251,1.86000001,
14.658453,-1.3641,-2.6792,-2.8383,55.75136548,48.74277251,1.86000001,
14.710113,-1.3641,-2.6792,-2.8383,55.75136548,48.74277251,1.86000001,
14.711378,-1.3641,-2.6792,-2.8383,55.75136548,48.74277251,1.86000001,
14.711984,-1.3641,-2.6792,-2.8383,55.75136548,48.74277251,1.86000001,
14.727314,-1.3641,-2.6792,-2.8383,55.75136548,48.74277251,1.86000001,
14.728321,0.4903,-3.2509,-4.5724,55.75136548,48.74277251,1.86000001,
14.729426,0.4903,-3.2509,-4.5724,55.75136548,48.74277251,1.86000001,
14.776743,0.4903,-3.2509,-4.5724,55.75136548,48.74277251,1.86000001,
14.778792,0.4903,-3.2509,-4.5724,55.75136548,48.74277251,1.86000001,
14.798255,0.5804,-2.9762,-3.4149,55.75136548,48.74277251,1.86000001,
14.803283,0.5804,-2.9762,-3.4149,55.75136548,48.74277251,1.86000001,
14.805368,0.5804,-2.9762,-3.4149,55.75136548,48.74277251,1.86000001,
14.810090,0.5804,-2.9762,-3.4149,55.75136548,48.74277251,1.86000001,
14.842013,0.5804,-2.9762,-3.4149,55.75136548,48.74277251,1.86000001,
14.868066,1.1045,-3.7960,0.8866,55.75136548,48.74277251,1.86000001,
14.871311,1.1045,-3.7960,0.8866,55.75136548,48.74277251,1.86000001,
14.872639,1.1045,-3.7960,0.8866,55.75136548,48.74277251,1.86000001,
14.873882,1.1045,-3.7960,0.8866,55.75136548,48.74277251,1.86000001,
14.909753,1.1045,-3.7960,0.8866,55.75136548,48.74277251,1.86000001,
14.911546,1.1045,-3.7960,0.8866,55.75136548,48.74277251,1.86000001,
14.938409,4.8481,-2.2677,0.7091,55.75136548,48.74277251,1.86000001,
14.941439,4.8481,-2.2677,0.7091,55.75136548,48.74277251,1.86000001,
14.942851,4.8481,-2.2677,0.7091,55.75136548,48.74277251,1.86000001,
14.976998,4.8481,-2.2677,0.7091,55.75136548,48.74277251,1.86000001,
14.979223,4.8481,-2.2677,0.7091,55.75136548,48.74277251,1.86000001,
15.008820,3.9463,-2.8196,0.3142,55.75136548,48.74277251,1.86000001,
15.011677,3.9463,-2.8196,0.3142,55.75136548,48.74277251,1.86000001,
15.012816,3.9463,-2.8196,0.3142,55.75136548,48.74277251,1.86000001,
15.014066,3.9463,-2.8196,0.3142,55.75136548,48.74277251,1.86000001,
15.042979,3.9463,-2.8196,0.3142,55.75136548,48.74277251,1.86000001,
15.059623,3.9463,-2.8196,0.3142,55.75136548,48.74277251,1.86000001,
15.079902,2.4456,0.6116,-2.7896,55.75136548,48.74277251,1.86000001,
15.083094,2.4456,0.6116,-2.7896,55.75136548,48.74277251,1.86000001,
15.084278,2.4456,0.6116,-2.7896,55.75136548,48.74277251,1.86000001,
15.109669,2.4456,0.6116,-2.7896,55.75136548,48.74277251,1.86000001,
15.111807,2.4456,0.6116,-2.7896,55.75136548,48.74277251,1.86000001,
15.148351,2.4456,0.6116,-2.7896,55.75136548,48.74277251,1.86000001,
15.150359,2.4456,0.6116,-2.7896,55.75136548,48.74277251,1.86000001,
15.151064,-0.9820,1.3699,1.5024,55.75136548,48.74277251,1.86000001,
15.152328,-0.9820,1.3699,1.5024,55.75136548,48.74277251,1.86000001,
15.175116,-0.9820,1.3699,1.5024,55.75136548,48.74277251,1.86000001,
15.217917,-0.9820,1.3699,1.5024,55.75136548,48.74277251,1.86000001,
15.219287,-0.9820,1.3699,1.5024,55.75135998,48.74280150,1.75999999,
15.220367,-0.9820,1.3699,1.5024,55.75135998,48.74280150,1.75999999,
15.221165,-3.4296,0.6843,1.1901,55.75135998,48.74280150,1.75999999,
15.239467,-3.4296,0.6843,1.1901,55.75135998,48.74280150,1.75999999,
15.291845,-3.4296,0.6843,1.1901,55.75135998,48.74280150,1.75999999,
15.295169,-5.2808,1.4195,2.8570,55.75135998,48.74280150,1.75999999,
15.297559,-5.2808,1.4195,2.8570,55.75135998,48.74280150,1.75999999,
15.298777,-5.2808,1.4195,2.8570,55.75135998,48.74280150,1.75999999,
15.300097,-5.2808,1.4195,2.8570,55.75135998,48.74280150,1.75999999,
15.310373,-5.2808,1.4195,2.8570,55.75135998,48.74280150,1.75999999,
15.331094,-5.2808,1.4195,2.8570,55.75135998,48.74280150,1.75999999,
15.359626,-5.2808,1.4195,2.8570,55.75135998,48.74280150,1.75999999,
15.361726,-5.6629,3.4245,3.2564,55.75135998,48.74280150,1.75999999,
15.363574,-5.6629,3.4245,3.2564,55.75135998,48.74280150,1.75999999,
15.375916,-5.6629,3.4245,3.2564,55.75135998,48.74280150,1.75999999,
15.430762,-5.6629,3.4245,3.2564,55.75135998,48.74280150,1.75999999,
15.433033,-5.6629,3.4245,3.2564,55.75135998,48.74280150,1.75999999,
15.434862,-5.6629,3.4245,3.2564,55.75135998,48.74280150,1.75999999,
15.435970,-1.5834,4.5873,6.7675,55.75135998,48.74280150,1.75999999,
15.437769,-1.5834,4.5873,6.7675,55.75135998,48.74280150,1.75999999,
15.500099,-1.5834,4.5873,6.7675,55.75135998,48.74280150,1.75999999,
15.501982,-1.5834,4.5873,6.7675,55.75135998,48.74280150,1.75999999,
15.503122,-1.5834,4.5873,6.7675,55.75135998,48.74280150,1.75999999,
15.504198,0.1406,3.8133,7.8341,55.75135998,48.74280150,1.75999999,
15.506151,0.1406,3.8133,7.8341,55.75135998,48.74280150,1.75999999,
15.510105,0.1406,3.8133,7.8341,55.75135998,48.74280150,1.75999999,
15.547681,0.1406,3.8133,7.8341,55.75135998,48.74280150,1.75999999,
15.559205,0.1406,3.8133,7.8341,55.75135998,48.74280150,1.75999999,
15.570585,2.7488,-1.2680,12.6576,55.75135998,48.74280150,1.75999999,
15.573528,2.7488,-1.2680,12.6576,55.75135998,48.74280150,1.75999999,
15.574808,2.7488,-1.2680,12.6576,55.75135998,48.74280150,1.75999999,
15.640351,2.7488,-1.2680,12.6576,55.75135998,48.74280150,1.75999999,
15.642477,2.7488,-1.2680,12.6576,55.75135998,48.74280150,1.75999999,
15.643591,2.7488,-1.2680,12.6576,55.75135998,48.74280150,1.75999999,
15.644694,2.8876,-4.4990,-4.6537,55.75135998,48.74280150,1.75999999,
15.646674,2.8876,-4.4990,-4.6537,55.75135998,48.74280150,1.75999999,
15.710121,2.8876,-4.4990,-4.6537,55.75135998,48.74280150,1.75999999,
15.711859,2.8876,-4.4990,-4.6537,55.75135998,48.74280150,1.75999999,
15.712974,2.8876,-4.4990,-4.6537,55.75135998,48.74280150,1.75999999,
15.714232,2.8876,-4.4990,-4.6537,55.75135998,48.74280150,1.75999999,
15.715325,2.8876,-4.4990,-4.6537,55.75135998,48.74280150,1.75999999,
15.716394,0.3211,-6.5076,-9.9697,55.75135998,48.74280150,1.75999999,
15.751089,0.3211,-6.5076,-9.9697,55.75135998,48.74280150,1.75999999,
15.753316,0.3211,-6.5076,-9.9697,55.75135998,48.74280150,1.75999999,
15.775945,0.3211,-6.5076,-9.9697,55.75135998,48.74280150,1.75999999,
15.779814,-0.1779,-6.8966,-13.2201,55.75135998,48.74280150,1.75999999,
15.783905,-0.1779,-6.8966,-13.2201,55.75135998,48.74280150,1.75999999,
15.810011,-0.1779,-6.8966,-13.2201,55.75135998,48.74280150,1.75999999,
15.816078,-0.1779,-6.8966,-13.2201,55.75135998,48.74280150,1.75999999,
15.846201,-0.1779,-6.8966,-13.2201,55.75135998,48.74280150,1.75999999,
15.849659,3.7840,-5.6934,-0.5576,55.75135998,48.74280150,1.75999999,
15.850544,3.7840,-5.6934,-0.5576,55.75135998,48.74280150,1.75999999,
15.851093,3.7840,-5.6934,-0.5576,55.75135998,48.74280150,1.75999999,
15.878644,3.7840,-5.6934,-0.5576,55.75135998,48.74280150,1.75999999,
15.898649,3.7840,-5.6934,-0.5576,55.75135998,48.74280150,1.75999999,
15.921729,3.7840,-5.6934,-0.5576,55.75135998,48.74280150,1.75999999,
15.923755,9.9434,4.3987,5.9067,55.75135998,48.74280150,1.75999999,
15.925057,9.9434,4.3987,5.9067,55.75135998,48.74280150,1.75999999,
15.934313,9.9434,4.3987,5.9067,55.75135998,48.74280150,1.75999999,
15.969436,9.9434,4.3987,5.9067,55.75135998,48.74280150,1.75999999,
15.972226,9.9434,4.3987,5.9067,55.75135998,48.74280150,1.75999999,
15.991124,0.2894,4.6124,7.7908,55.75135998,48.74280150,1.75999999,
15.994080,0.2894,4.6124,7.7908,55.75135998,48.74280150,1.75999999,
15.995794,0.2894,4.6124,7.7908,55.75135998,48.74280150,1.75999999,
16.017038,0.2894,4.6124,7.7908,55.75135998,48.74280150,1.75999999,
16.048691,0.2894,4.6124,7.7908,55.75135998,48.74280150,1.75999999,
16.050495,0.2894,4.6124,7.7908,55.75135998,48.74280150,1.75999999,
16.065154,-4.3469,0.7666,-3.6601,55.75135998,48.74280150,1.75999999,
16.066859,-4.3469,0.7666,-3.6601,55.75135998,48.74280150,1.75999999,
16.070728,-4.3469,0.7666,-3.6601,55.75135998,48.74280150,1.75999999,
16.102121,-4.3469,0.7666,-3.6601,55.75135998,48.74280150,1.75999999,
16.131303,-7.5531,1.9234,3.0329,55.75135998,48.74280150,1.75999999,
16.133151,-7.5531,1.9234,3.0329,55.75135998,48.74280150,1.75999999,
16.133782,-7.5531,1.9234,3.0329,55.75135998,48.74280150,1.75999999,
16.134285,-7.5531,1.9234,3.0329,55.75135998,48.74280150,1.75999999,
16.151211,-7.5531,1.9234,3.0329,55.75135998,48.74280150,1.75999999,
16.185812,-7.5531,1.9234,3.0329,55.75135998,48.74280150,1.75999999,
16.203911,-7.5531,1.9234,3.0329,55.75135998,48.74280150,1.75999999,
16.204941,-7.5531,1.9234,3.0329,55.75135303,48.74283640,2.46000004,
16.205760,-5.9038,2.7707,-0.4453,55.75135303,48.74283640,2.46000004,
16.218871,-5.9038,2.7707,-0.4453,55.75135303,48.74283640,2.46000004,
16.234852,-5.9038,2.7707,-0.4453,55.75135303,48.74283640,2.46000004,
16.266389,-5.9038,2.7707,-0.4453,55.75135303,48.74283640,2.46000004,
16.271046,-5.9038,2.7707,-0.4453,55.75135303,48.74283640,2.46000004,
16.271702,-1.8568,4.3276,9.8532,55.75135303,48.74283640,2.46000004,
16.272574,-1.8568,4.3276,9.8532,55.75135303,48.74283640,2.46000004,
16.300495,-1.8568,4.3276,9.8532,55.75135303,48.74283640,2.46000004,
16.335158,-1.8568,4.3276,9.8532,55.75135303,48.74283640,2.46000004,
16.336728,-1.8568,4.3276,9.8532,55.75135303,48.74283640,2.46000004,
16.341773,-1.8568,4.3276,9.8532,55.75135303,48.74283640,2.46000004,
16.343543,6.5888,1.4136,20.3994,55.75135303,48.74283640,2.46000004,
16.352455,6.5888,1.4136,20.3994,55.75135303,48.74283640,2.46000004,
16.385283,6.5888,1.4136,20.3994,55.75135303,48.74283640,2.46000004,
16.412171,6.5888,1.4136,20.3994,55.75135303,48.74283640,2.46000004,
16.413953,6.5888,1.4136,20.3994,55.75135303,48.74283640,2.46000004,
16.414495,6.5888,1.4136,20.3994,55.75135303,48.74283640,2.46000004,
16.414997,3.4725,-7.6832,-5.1883,55.75135303,48.74283640,2.46000004,
16.457577,3.4725,-7.6832,-5.1883,55.75135303,48.74283640,2.46000004,
16.458794,3.4725,-7.6832,-5.1883,55.75135303,48.74283640,2.46000004,
16.472731,3.4725,-7.6832,-5.1883,55.75135303,48.74283640,2.46000004,
16.481821,-2.1517,-9.0553,-10.2957,55.75135303,48.74283640,2.46000004,
16.483096,-2.1517,-9.0553,-10.2957,55.75135303,48.74283640,2.46000004,
16.499974,-2.1517,-9.0553,-10.2957,55.75135303,48.74283640,2.46000004,
16.535268,-2.1517,-9.0553,-10.2957,55.75135303,48.74283640,2.46000004,
16.536773,-2.1517,-9.0553,-10.2957,55.75135303,48.74283640,2.46000004,
16.552648,0.1320,-6.7684,-12.2425,55.75135303,48.74283640,2.46000004,
16.554939,0.1320,-6.7684,-12.2425,55.75135303,48.74283640,2.46000004,
16.555857,0.1320,-6.7684,-12.2425,55.75135303,48.74283640,2.46000004,
16.582034,0.1320,-6.7684,-12.2425,55.75135303,48.74283640,2.46000004,
16.618877,0.1320,-6.7684,-12.2425,55.75135303,48.74283640,2.46000004,
16.620404,0.1320,-6.7684,-12.2425,55.75135303,48.74283640,2.46000004,
16.621982,5.2326,-2.3171,-0.5868,55.75135303,48.74283640,2.46000004,
16.623142,5.2326,-2.3171,-0.5868,55.75135303,48.74283640,2.46000004,
16.650752,5.2326,-2.3171,-0.5868,55.75135303,48.74283640,2.46000004,
16.653056,5.2326,-2.3171,-0.5868,55.75135303,48.74283640,2.46000004,
16.691304,5.2326,-2.3171,-0.5868,55.75135303,48.74283640,2.46000004,
16.694169,5.2326,-2.3171,-0.5868,55.75135303,48.74283640,2.46000004,
16.695120,7.2143,5.9750,10.8085,55.75135303,48.74283640,2.46000004,
16.695876,7.2143,5.9750,10.8085,55.75135303,48.74283640,2.46000004,
16.733143,7.2143,5.9750,10.8085,55.75135303,48.74283640,2.46000004,
16.734605,7.2143,5.9750,10.8085,55.75135303,48.74283640,2.46000004,
16.763514,2.3888,8.2099,4.9261,55.75135303,48.74283640,2.46000004,
16.765564,2.3888,8.2099,4.9261,55.75135303,48.74283640,2.46000004,
16.766261,2.3888,8.2099,4.9261,55.75135303,48.74283640,2.46000004,
16.773232,2.3888,8.2099,4.9261,55.75135303,48.74283640,2.46000004,
16.803258,2.3888,8.2099,4.9261,55.75135303,48.74283640,2.46000004,
16.833866,2.3888,8.2099,4.9261,55.75135303,48.74283640,2.46000004,
16.834946,2.3888,8.2099,4.9261,55.75135303,48.74283640,2.46000004,
16.835516,-7.2016,1.6817,-3.8568,55.75135303,48.74283640,2.46000004,
16.836265,-7.2016,1.6817,-3.8568,55.75135303,48.74283640,2.46000004,
16.853827,-7.2016,1.6817,-3.8568,55.75135303,48.74283640,2.46000004,
16.875688,-7.2016,1.6817,-3.8568,55.75135303,48.74283640,2.46000004,
16.906172,-7.2016,1.6817,-3.8568,55.75135303,48.74283640,2.46000004,
16.907148,-4.4505,-0.0661,-2.8123,55.75135303,48.74283640,2.46000004,
16.907997,-4.4505,-0.0661,-2.8123,55.75135303,48.74283640,2.46000004,
16.915871,-4.4505,-0.0661,-2.8123,55.75135303,48.74283640,2.46000004,
16.958302,-4.4505,-0.0661,-2.8123,55.75135303,48.74283640,2.46000004,
16.959938,-4.4505,-0.0661,-2.8123,55.75135303,48.74283640,2.46000004,
16.975827,-4.4505,-0.0661,-2.8123,55.75135303,48.74283640,2.46000004,
16.977706,-4.4505,-0.0661,-2.8123,55.75135303,48.74283640,2.46000004,
16.978538,-2.4869,-0.2024,-2.5405,55.75135303,48.74283640,2.46000004,
17.021328,-2.4869,-0.2024,-2.5405,55.75135303,48.74283640,2.46000004,
17.022558,-2.4869,-0.2024,-2.5405,55.75135303,48.74283640,2.46000004,
17.037866,-2.4869,-0.2024,-2.5405,55.75135303,48.74283640,2.46000004,
17.044153,-3.2977,1.4633,6.2429,55.75135303,48.74283640,2.46000004,
17.045730,-3.2977,1.4633,6.2429,55.75135303,48.74283640,2.46000004,
17.060731,-3.2977,1.4633,6.2429,55.75135303,48.74283640,2.46000004,
17.103076,-3.2977,1.4633,6.2429,55.75135303,48.74283640,2.46000004,
17.105771,-3.2977,1.4633,6.2429,55.75135303,48.74283640,2.46000004,
17.115156,-3.2977,1.4633,6.2429,55.75135303,48.74283640,2.46000004,
17.116104,-3.2977,1.4633,6.2429,55.75135303,48.74283640,2.46000004,
17.116586,3.2789,0.2235,11.4408,55.75135303,48.74283640,2.46000004,
17.134426,3.2789,0.2235,11.4408,55.75135303,48.74283640,2.46000004,
17.167083,3.2789,0.2235,11.4408,55.75135303,48.74283640,2.46000004,
17.185211,3.2789,0.2235,11.4408,55.75135303,48.74283640,2.46000004,
17.186207,0.7106,-3.6005,-4.6607,55.75135303,48.74283640,2.46000004,
17.186947,0.7106,-3.6005,-4.6607,55.75135303,48.74283640,2.46000004,
17.209603,0.7106,-3.6005,-4.6607,55.75135303,48.74283640,2.46000004,
17.217696,0.7106,-3.6005,-4.6607,55.75134521,48.74288233,3.21000004,
17.249492,0.7106,-3.6005,-4.6607,55.75134521,48.74288233,3.21000004,
17.255180,0.8853,-6.5678,-3.8050,55.75134521,48.74288233,3.21000004,
17.256562,0.8853,-6.5678,-3.8050,55.75134521,48.74288233,3.21000004,
17.257393,0.8853,-6.5678,-3.8050,55.75134521,48.74288233,3.21000004,
17.290661,0.8853,-6.5678,-3.8050,55.75134521,48.74288233,3.21000004,
17.296741,0.8853,-6.5678,-3.8050,55.75134521,48.74288233,3.21000004,
17.318589,0.8853,-6.5678,-3.8050,55.75134521,48.74288233,3.21000004,
17.326524,1.1251,-6.5569,-10.0690,55.75134521,48.74288233,3.21000004,
17.329188,1.1251,-6.5569,-10.0690,55.75134521,48.74288233,3.21000004,
17.351443,1.1251,-6.5569,-10.0690,55.75134521,48.74288233,3.21000004,
17.387168,1.1251,-6.5569,-10.0690,55.75134521,48.74288233,3.21000004,
17.388437,1.1251,-6.5569,-10.0690,55.75134521,48.74288233,3.21000004,
17.395431,3.0257,-3.0540,-1.7765,55.75134521,48.74288233,3.21000004,
17.397243,3.0257,-3.0540,-1.7765,55.75134521,48.74288233,3.21000004,
17.397809,3.0257,-3.0540,-1.7765,55.75134521,48.74288233,3.21000004,
17.424164,3.0257,-3.0540,-1.7765,55.75134521,48.74288233,3.21000004,
17.450757,3.0257,-3.0540,-1.7765,55.75134521,48.74288233,3.21000004,
17.465477,6.7334,4.8135,2.2475,55.75134521,48.74288233,3.21000004,
17.466963,6.7334,4.8135,2.2475,55.75134521,48.74288233,3.21000004,
17.467517,6.7334,4.8135,2.2475,55.75134521,48.74288233,3.21000004,
17.487960,6.7334,4.8135,2.2475,55.75134521,48.74288233,3.21000004,
17.498379,6.7334,4.8135,2.2475,55.75134521,48.74288233,3.21000004,
17.536756,5.1019,5.4979,9.2294,55.75134521,48.74288233,3.21000004,
17.538921,5.1019,5.4979,9.2294,55.75134521,48.74288233,3.21000004,
17.539369,5.1019,5.4979,9.2294,55.75134521,48.74288233,3.21000004,
17.539777,5.1019,5.4979,9.2294,55.75134521,48.74288233,3.21000004,
17.557746,5.1019,5.4979,9.2294,55.75134521,48.74288233,3.21000004,
17.589764,5.1019,5.4979,9.2294,55.75134521,48.74288233,3.21000004,
17.606176,5.1019,5.4979,9.2294,55.75134521,48.74288233,3.21000004,
17.607300,5.1019,5.4979,9.2294,55.75134521,48.74288233,3.21000004,
17.607749,-5.7948,1.2543,-5.8674,55.75134521,48.74288233,3.21000004,
17.633988,-5.7948,1.2543,-5.8674,55.75134521,48.74288233,3.21000004,
17.636667,-5.7948,1.2543,-5.8674,55.75134521,48.74288233,3.21000004,
17.663577,-5.7948,1.2543,-5.8674,55.75134521,48.74288233,3.21000004,
17.678322,-7.0763,0.7785,3.1413,55.75134521,48.74288233,3.21000004,
17.680028,-7.0763,0.7785,3.1413,55.75134521,48.74288233,3.21000004,
17.680736,-7.0763,0.7785,3.1413,55.75134521,48.74288233,3.21000004,
17.703238,-7.0763,0.7785,3.1413,55.75134521,48.74288233,3.21000004,
17.735979,-7.0763,0.7785,3.1413,55.75134521,48.74288233,3.21000004,
17.736951,-7.0763,0.7785,3.1413,55.75134521,48.74288233,3.21000004,
17.746921,-5.7692,0.5269,-1.0579,55.75134521,48.74288233,3.21000004,
17.750813,-5.7692,0.5269,-1.0579,55.75134521,48.74288233,3.21000004,
17.771253,-5.7692,0.5269,-1.0579,55.75134521,48.74288233,3.21000004,
17.794428,-5.7692,0.5269,-1.0579,55.75134521,48.74288233,3.21000004,
17.807380,-5.7692,0.5269,-1.0579,55.75134521,48.74288233,3.21000004,
17.817430,-1.2966,1.3169,5.9973,55.75134521,48.74288233,3.21000004,
17.819064,-1.2966,1.3169,5.9973,55.75134521,48.74288233,3.21000004,
17.819535,-1.2966,1.3169,5.9973,55.75134521,48.74288233,3.21000004,
17.837764,-1.2966,1.3169,5.9973,55.75134521,48.74288233,3.21000004,
17.870095,-1.2966,1.3169,5.9973,55.75134521,48.74288233,3.21000004,
17.887548,-1.2966,1.3169,5.9973,55.75134521,48.74288233,3.21000004,
17.888801,7.8602,2.1773,18.3537,55.75134521,48.74288233,3.21000004,
17.890170,7.8602,2.1773,18.3537,55.75134521,48.74288233,3.21000004,
17.905309,7.8602,2.1773,18.3537,55.75134521,48.74288233,3.21000004,
17.936137,7.8602,2.1773,18.3537,55.75134521,48.74288233,3.21000004,
17.937818,7.8602,2.1773,18.3537,55.75134521,48.74288233,3.21000004,
17.958028,2.6518,-3.2840,-0.3329,55.75134521,48.74288233,3.21000004,
17.960865,2.6518,-3.2840,-0.3329,55.75134521,48.74288233,3.21000004,
17.962135,2.6518,-3.2840,-0.3329,55.75134521,48.74288233,3.21000004,
18.006011,2.6518,-3.2840,-0.3329,55.75134521,48.74288233,3.21000004,
18.007436,2.6518,-3.2840,-0.3329,55.75134521,48.74288233,3.21000004,
18.027519,2.6518,-3.2840,-0.3329,55.75134521,48.74288233,3.21000004,
18.028613,2.6518,-3.2840,-0.3329,55.75134521,48.74288233,3.21000004,
18.029285,-1.9810,-7.7600,-9.0423,55.75134521,48.74288233,3.21000004,
18.038569,-1.9810,-7.7600,-9.0423,55.75134521,48.74288233,3.21000004,
18.058535,-1.9810,-7.7600,-9.0423,55.75134521,48.74288233,3.21000004,
18.098956,-1.9810,-7.7600,-9.0423,55.75134521,48.74288233,3.21000004,
18.101126,-1.9810,-7.7600,-9.0423,55.75134521,48.74288233,3.21000004,
18.101843,-1.9810,-7.7600,-9.0423,55.75134521,48.74288233,3.21000004,
18.102428,-2.2785,-10.6211,-11.3948,55.75134521,48.74288233,3.21000004,
18.134909,-2.2785,-10.6211,-11.3948,55.75134521,48.74288233,3.21000004,
18.138890,-2.2785,-10.6211,-11.3948,55.75134521,48.74288233,3.21000004,
18.168045,-2.2785,-10.6211,-11.3948,55.75134521,48.74288233,3.21000004,
18.170217,2.3107,-5.9643,-8.2888,55.75134521,48.74288233,3.21000004,
18.171169,2.3107,-5.9643,-8.2888,55.75134521,48.74288233,3.21000004,
18.202662,2.3107,-5.9643,-8.2888,55.75134521,48.74288233,3.21000004,
18.203551,2.3107,-5.9643,-8.2888,55.75133632,48.74292889,2.36999989,
18.239677,2.3107,-5.9643,-8.2888,55.75133632,48.74292889,2.36999989,
18.241013,2.3107,-5.9643,-8.2888,55.75133632,48.74292889,2.36999989,
18.241947,10.3928,5.9017,6.3495,55.75133632,48.74292889,2.36999989,
18.242900,10.3928,5.9017,6.3495,55.75133632,48.74292889,2.36999989,
18.273033,10.3928,5.9017,6.3495,55.75133632,48.74292889,2.36999989,
18.309349,10.3928,5.9017,6.3495,55.75133632,48.74292889,2.36999989,
18.311319,10.3928,5.9017,6.3495,55.75133632,48.74292889,2.36999989,
18.311916,7.0891,8.3819,9.4398,55.75133632,48.74292889,2.36999989,
18.312742,7.0891,8.3819,9.4398,55.75133632,48.74292889,2.36999989,
18.337126,7.0891,8.3819,9.4398,55.75133632,48.74292889,2.36999989,
18.339945,7.0891,8.3819,9.4398,55.75133632,48.74292889,2.36999989,
18.372133,7.0891,8.3819,9.4398,55.75133632,48.74292889,2.36999989,
18.378903,7.0891,8.3819,9.4398,55.75133632,48.74292889,2.36999989,
18.379725,7.0891,8.3819,9.4398,55.75133632,48.74292889,2.36999989,
18.380366,-4.6452,1.8957,-4.2434,55.75133632,48.74292889,2.36999989,
18.405744,-4.6452,1.8957,-4.2434,55.75133632,48.74292889,2.36999989,
18.438210,-4.6452,1.8957,-4.2434,55.75133632,48.74292889,2.36999989,
18.439398,-4.6452,1.8957,-4.2434,55.75133632,48.74292889,2.36999989,
18.450411,-5.9655,-0.2697,1.5995,55.75133632,48.74292889,2.36999989,
18.452270,-5.9655,-0.2697,1.5995,55.75133632,48.74292889,2.36999989,
18.487365,-5.9655,-0.2697,1.5995,55.75133632,48.74292889,2.36999989,
18.489152,-5.9655,-0.2697,1.5995,55.75133632,48.74292889,2.36999989,
18.509304,-5.9655,-0.2697,1.5995,55.75133632,48.74292889,2.36999989,
18.519140,-5.9655,-0.2697,1.5995,55.75133632,48.74292889,2.36999989,
18.519678,-5.9655,-0.2697,1.5995,55.75133632,48.74292889,2.36999989,
18.520025,-6.8076,-0.5961,-2.4585,55.75133632,48.74292889,2.36999989,
18.559672,-6.8076,-0.5961,-2.4585,55.75133632,48.74292889,2.36999989,
18.581507,-6.8076,-0.5961,-2.4585,55.75133632,48.74292889,2.36999989,
18.582509,-6.8076,-0.5961,-2.4585,55.75133632,48.74292889,2.36999989,
18.589427,-0.5040,2.3069,11.0176,55.75133632,48.74292889,2.36999989,
18.590369,-0.5040,2.3069,11.0176,55.75133632,48.74292889,2.36999989,
18.612622,-0.5040,2.3069,11.0176,55.75133632,48.74292889,2.36999989,
18.622817,-0.5040,2.3069,11.0176,55.75133632,48.74292889,2.36999989,
18.662076,-0.5040,2.3069,11.0176,55.75133632,48.74292889,2.36999989,
18.664420,-0.5040,2.3069,11.0176,55.75133632,48.74292889,2.36999989,
18.665735,5.2537,3.1236,15.1859,55.75133632,48.74292889,2.36999989,
18.667144,5.2537,3.1236,15.1859,55.75133632,48.74292889,2.36999989,
18.681533,5.2537,3.1236,15.1859,55.75133632,48.74292889,2.36999989,
18.705412,5.2537,3.1236,15.1859,55.75133632,48.74292889,2.36999989,
18.731097,0.2688,-6.1029,-4.1995,55.75133632,48.74292889,2.36999989,
18.733010,0.2688,-6.1029,-4.1995,55.75133632,48.74292889,2.36999989,
18.733767,0.2688,-6.1029,-4.1995,55.75133632,48.74292889,2.36999989,
18.755207,0.2688,-6.1029,-4.1995,55.75133632,48.74292889,2.36999989,
18.800371,-1.5985,-9.3609,-9.6376,55.75133632,48.74292889,2.36999989,
18.801967,-1.5985,-9.3609,-9.6376,55.75133632,48.74292889,2.36999989,
18.802928,-1.5985,-9.3609,-9.6376,55.75133632,48.74292889,2.36999989,
18.803388,-1.5985,-9.3609,-9.6376,55.75133632,48.74292889,2.36999989,
18.803777,-1.5985,-9.3609,-9.6376,55.75133632,48.74292889,2.36999989,
18.839321,-1.5985,-9.3609,-9.6376,55.75133632,48.74292889,2.36999989,
18.841130,-1.5985,-9.3609,-9.6376,55.75133632,48.74292889,2.36999989,
18.871713,-1.5985,-9.3609,-9.6376,55.75133632,48.74292889,2.36999989,
18.873145,1.0945,-7.8383,-11.4166,55.75133632,48.74292889,2.36999989,
18.874849,1.0945,-7.8383,-11.4166,55.75133632,48.74292889,2.36999989,
18.896879,1.0945,-7.8383,-11.4166,55.75133632,48.74292889,2.36999989,
18.900269,1.0945,-7.8383,-11.4166,55.75133632,48.74292889,2.36999989,
18.939814,1.0945,-7.8383,-11.4166,55.75133632,48.74292889,2.36999989,
18.941234,1.0945,-7.8383,-11.4166,55.75133632,48.74292889,2.36999989,
18.942084,1.0945,-7.8383,-11.4166,55.75133632,48.74292889,2.36999989,
18.942781,3.3851,-3.7860,-5.2127,55.75133632,48.74292889,2.36999989,
18.989762,3.3851,-3.7860,-5.2127,55.75133632,48.74292889,2.36999989,
18.990839,3.3851,-3.7860,-5.2127,55.75133632,48.74292889,2.36999989,
19.012019,10.4046,6.9934,11.0582,55.75133632,48.74292889,2.36999989,
19.014535,10.4046,6.9934,11.0582,55.75133632,48.74292889,2.36999989,
19.015575,10.4046,6.9934,11.0582,55.75133632,48.74292889,2.36999989,
19.043520,10.4046,6.9934,11.0582,55.75133632,48.74292889,2.36999989,
19.044519,10.4046,6.9934,11.0582,55.75133632,48.74292889,2.36999989,
19.061015,10.4046,6.9934,11.0582,55.75133632,48.74292889,2.36999989,
19.080940,10.4046,6.9934,11.0582,55.75133632,48.74292889,2.36999989,
19.082111,8.5629,8.3145,13.3352,55.75133632,48.74292889,2.36999989,
19.083005,8.5629,8.3145,13.3352,55.75133632,48.74292889,2.36999989,
19.126683,8.5629,8.3145,13.3352,55.75133632,48.74292889,2.36999989,
19.128590,8.5629,8.3145,13.3352,55.75133632,48.74292889,2.36999989,
19.152412,8.5629,8.3145,13.3352,55.75133632,48.74292889,2.36999989,
19.154246,-7.2351,-0.5188,-7.4918,55.75133632,48.74292889,2.36999989,
19.155777,-7.2351,-0.5188,-7.4918,55.75133632,48.74292889,2.36999989,
19.195043,-7.2351,-0.5188,-7.4918,55.75133632,48.74292889,2.36999989,
19.196691,-7.2351,-0.5188,-7.4918,55.75133632,48.74292889,2.36999989,
19.225709,-7.2351,-0.5188,-7.4918,55.75133632,48.74292889,2.36999989,
19.226679,-7.2351,-0.5188,-7.4918,55.75132660,48.74297777,3.13000011,
19.227368,-11.4289,-3.3532,-1.8343,55.75132660,48.74297777,3.13000011,
19.228314,-11.4289,-3.3532,-1.8343,55.75132660,48.74297777,3.13000011,
19.273951,-11.4289,-3.3532,-1.8343,55.75132660,48.74297777,3.13000011,
19.275545,-11.4289,-3.3532,-1.8343,55.75132660,48.74297777,3.13000011,
19.292675,-8.6000,-2.1127,-1.4950,55.75132660,48.74297777,3.13000011,
19.294809,-8.6000,-2.1127,-1.4950,55.75132660,48.74297777,3.13000011,
19.295457,-8.6000,-2.1127,-1.4950,55.75132660,48.74297777,3.13000011,
19.307991,-8.6000,-2.1127,-1.4950,55.75132660,48.74297777,3.13000011,
19.359161,-8.6000,-2.1127,-1.4950,55.75132660,48.74297777,3.13000011,
19.360726,-8.6000,-2.1127,-1.4950,55.75132660,48.74297777,3.13000011,
19.362284,0.8085,6.0826,10.1159,55.75132660,48.74297777,3.13000011,
19.363307,0.8085,6.0826,10.1159,55.75132660,48.74297777,3.13000011,
19.363853,0.8085,6.0826,10.1159,55.75132660,48.74297777,3.13000011,
19.416325,0.8085,6.0826,10.1159,55.75132660,48.74297777,3.13000011,
19.418468,0.8085,6.0826,10.1159,55.75132660,48.74297777,3.13000011,
19.428967,0.8085,6.0826,10.1159,55.75132660,48.74297777,3.13000011,
19.432659,10.6585,7.0936,20.9115,55.75132660,48.74297777,3.13000011,
19.434677,10.6585,7.0936,20.9115,55.75132660,48.74297777,3.13000011,
19.459604,10.6585,7.0936,20.9115,55.75132660,48.74297777,3.13000011,
19.462956,10.6585,7.0936,20.9115,55.75132660,48.74297777,3.13000011,
19.503921,10.6585,7.0936,20.9115,55.75132660,48.74297777,3.13000011,
19.505748,10.6585,7.0936,20.9115,55.75132660,48.74297777,3.13000011,
19.506661,-0.8646,-7.9455,-9.7154,55.75132660,48.74297777,3.13000011,
19.508046,-0.8646,-7.9455,-9.7154,55.75132660,48.74297777,3.13000011,
19.558812,-0.8646,-7.9455,-9.7154,55.75132660,48.74297777,3.13000011,
19.560084,-0.8646,-7.9455,-9.7154,55.75132660,48.74297777,3.13000011,
19.565252,-0.8646,-7.9455,-9.7154,55.75132660,48.74297777,3.13000011,
19.573267,-0.7979,-11.6952,-10.1736,55.75132660,48.74297777,3.13000011,
19.575252,-0.7979,-11.6952,-10.1736,55.75132660,48.74297777,3.13000011,
19.609512,-0.7979,-11.6952,-10.1736,55.75132660,48.74297777,3.13000011,
19.611640,-0.7979,-11.6952,-10.1736,55.75132660,48.74297777,3.13000011,
19.643940,-0.7979,-11.6952,-10.1736,55.75132660,48.74297777,3.13000011,
19.646539,-0.7979,-11.6952,-10.1736,55.75132660,48.74297777,3.13000011,
19.647414,-0.7979,-11.6952,-10.1736,55.75132660,48.74297777,3.13000011,
19.648235,2.3455,-8.5805,-12.2884,55.75132660,48.74297777,3.13000011,
19.690706,2.3455,-8.5805,-12.2884,55.75132660,48.74297777,3.13000011,
19.691988,2.3455,-8.5805,-12.2884,55.75132660,48.74297777,3.13000011,
19.704745,2.3455,-8.5805,-12.2884,55.75132660,48.74297777,3.13000011,
19.723763,3.5118,-2.3816,-0.6877,55.75132660,48.74297777,3.13000011,
19.726124,3.5118,-2.3816,-0.6877,55.75132660,48.74297777,3.13000011,
19.744777,3.5118,-2.3816,-0.6877,55.75132660,48.74297777,3.13000011,
19.745868,3.5118,-2.3816,-0.6877,55.75132660,48.74297777,3.13000011,
19.783924,3.5118,-2.3816,-0.6877,55.75132660,48.74297777,3.13000011,
19.785210,3.5118,-2.3816,-0.6877,55.75132660,48.74297777,3.13000011,
19.785801,3.5118,-2.3816,-0.6877,55.75132660,48.74297777,3.13000011,
19.786351,11.2487,8.3598,11.2937,55.75132660,48.74297777,3.13000011,
19.808879,11.2487,8.3598,11.2937,55.75132660,48.74297777,3.13000011,
19.848066,11.2487,8.3598,11.2937,55.75132660,48.74297777,3.13000011,
19.849990,11.2487,8.3598,11.2937,55.75132660,48.74297777,3.13000011,
19.854365,6.1198,6.8306,14.9271,55.75132660,48.74297777,3.13000011,
19.855511,6.1198,6.8306,14.9271,55.75132660,48.74297777,3.13000011,
19.894535,6.1198,6.8306,14.9271,55.75132660,48.74297777,3.13000011,
19.896892,6.1198,6.8306,14.9271,55.75132660,48.74297777,3.13000011,
19.924939,-6.4586,-0.2925,-7.1085,55.75132660,48.74297777,3.13000011,
19.926732,-6.4586,-0.2925,-7.1085,55.75132660,48.74297777,3.13000011,
19.927286,-6.4586,-0.2925,-7.1085,55.75132660,48.74297777,3.13000011,
19.928073,-6.4586,-0.2925,-7.1085,55.75132660,48.74297777,3.13000011,
19.944933,-6.4586,-0.2925,-7.1085,55.75132660,48.74297777,3.13000011,
19.995247,-6.4586,-0.2925,-7.1085,55.75132660,48.74297777,3.13000011,
19.997142,-6.4586,-0.2925,-7.1085,55.75132660,48.74297777,3.13000011,
19.998021,-10.9493,-3.7005,-1.8464,55.75132660,48.74297777,3.13000011,
19.999741,-10.9493,-3.7005,-1.8464,55.75132660,48.74297777,3.13000011,
20.040333,-10.9493,-3.7005,-1.8464,55.75132660,48.74297777,3.13000011,
20.041875,-10.9493,-3.7005,-1.8464,55.75132660,48.74297777,3.13000011,
20.058461,-10.9493,-3.7005,-1.8464,55.75132660,48.74297777,3.13000011,
20.066732,-10.0904,-2.7401,-3.4953,55.75132660,48.74297777,3.13000011,
20.069837,-10.0904,-2.7401,-3.4953,55.75132660,48.74297777,3.13000011,
20.071086,-10.0904,-2.7401,-3.4953,55.75132660,48.74297777,3.13000011,
20.089181,-10.0904,-2.7401,-3.4953,55.75132660,48.74297777,3.13000011,
20.125621,-10.0904,-2.7401,-3.4953,55.75132660,48.74297777,3.13000011,
20.127741,-10.0904,-2.7401,-3.4953,55.75132660,48.74297777,3.13000011,
20.137389,-0.8844,5.5950,8.0256,55.75132660,48.74297777,3.13000011,
20.140205,-0.8844,5.5950,8.0256,55.75132660,48.74297777,3.13000011,
20.160357,-0.8844,5.5950,8.0256,55.75132660,48.74297777,3.13000011,
20.191071,-0.8844,5.5950,8.0256,55.75132660,48.74297777,3.13000011,
20.192020,-0.8844,5.5950,8.0256,55.75132660,48.74297777,3.13000011,
20.210214,13.2928,7.9432,19.7262,55.75132660,48.74297777,3.13000011,
20.211501,13.2928,7.9432,19.7262,55.75131749,48.74302318,2.71000004,
20.212044,13.2928,7.9432,19.7262,55.75131749,48.74302318,2.71000004,
20.243459,13.2928,7.9432,19.7262,55.75131749,48.74302318,2.71000004,
20.246096,13.2928,7.9432,19.7262,55.75131749,48.74302318,2.71000004,
20.275981,-1.1911,-5.2031,-7.4513,55.75131749,48.74302318,2.71000004,
20.278282,-1.1911,-5.2031,-7.4513,55.75131749,48.74302318,2.71000004,
20.279247,-1.1911,-5.2031,-7.4513,55.75131749,48.74302318,2.71000004,
20.296655,-1.1911,-5.2031,-7.4513,55.75131749,48.74302318,2.71000004,
20.308827,-1.1911,-5.2031,-7.4513,55.75131749,48.74302318,2.71000004,
20.344941,-1.1911,-5.2031,-7.4513,55.75131749,48.74302318,2.71000004,
20.346567,-1.1911,-5.2031,-7.4513,55.75131749,48.74302318,2.71000004,
20.347635,-1.1911,-5.2031,-7.4513,55.75131749,48.74302318,2.71000004,
20.348499,-1.7705,-8.9433,-11.2281,55.75131749,48.74302318,2.71000004,
20.391958,-1.7705,-8.9433,-11.2281,55.75131749,48.74302318,2.71000004,
20.393997,-1.7705,-8.9433,-11.2281,55.75131749,48.74302318,2.71000004,
20.416087,2.1441,-7.5730,-12.9205,55.75131749,48.74302318,2.71000004,
20.418660,2.1441,-7.5730,-12.9205,55.75131749,48.74302318,2.71000004,
20.420371,2.1441,-7.5730,-12.9205,55.75131749,48.74302318,2.71000004,
20.442906,2.1441,-7.5730,-12.9205,55.75131749,48.74302318,2.71000004,
20.446522,2.1441,-7.5730,-12.9205,55.75131749,48.74302318,2.71000004,
20.486722,2.1441,-7.5730,-12.9205,55.75131749,48.74302318,2.71000004,
20.488153,2.1441,-7.5730,-12.9205,55.75131749,48.74302318,2.71000004,
20.488935,4.1839,-1.5254,1.1596,55.75131749,48.74302318,2.71000004,
20.489991,4.1839,-1.5254,1.1596,55.75131749,48.74302318,2.71000004,
20.544340,4.1839,-1.5254,1.1596,55.75131749,48.74302318,2.71000004,
20.546770,4.1839,-1.5254,1.1596,55.75131749,48.74302318,2.71000004,
20.547651,4.1839,-1.5254,1.1596,55.75131749,48.74302318,2.71000004,
20.556511,11.6623,7.7002,19.0293,55.75131749,48.74302318,2.71000004,
20.558339,11.6623,7.7002,19.0293,55.75131749,48.74302318,2.71000004,
20.597628,11.6623,7.7002,19.0293,55.75131749,48.74302318,2.71000004,
20.599037,11.6623,7.7002,19.0293,55.75131749,48.74302318,2.71000004,
20.627623,11.6623,7.7002,19.0293,55.75131749,48.74302318,2.71000004,
20.628997,11.6623,7.7002,19.0293,55.75131749,48.74302318,2.71000004,
20.630052,-0.6403,4.3347,-3.6178,55.75131749,48.74302318,2.71000004,
20.630997,-0.6403,4.3347,-3.6178,55.75131749,48.74302318,2.71000004,
20.648076,-0.6403,4.3347,-3.6178,55.75131749,48.74302318,2.71000004,
20.694636,-0.6403,4.3347,-3.6178,55.75131749,48.74302318,2.71000004,
20.697005,-0.6403,4.3347,-3.6178,55.75131749,48.74302318,2.71000004,
20.697994,-0.6403,4.3347,-3.6178,55.75131749,48.74302318,2.71000004,
20.698602,-8.5514,-2.0458,-0.7868,55.75131749,48.74302318,2.71000004,
20.713355,-8.5514,-2.0458,-0.7868,55.75131749,48.74302318,2.71000004,
20.744450,-8.5514,-2.0458,-0.7868,55.75131749,48.74302318,2.71000004,
20.746813,-8.5514,-2.0458,-0.7868,55.75131749,48.74302318,2.71000004,
20.768494,-8.5514,-2.0458,-0.7868,55.75131749,48.74302318,2.71000004,
20.770765,-6.0117,-0.6190,-6.6451,55.75131749,48.74302318,2.71000004,
20.772220,-6.0117,-0.6190,-6.6451,55.75131749,48.74302318,2.71000004,
20.809756,-6.0117,-0.6190,-6.6451,55.75131749,48.74302318,2.71000004,
20.811541,-6.0117,-0.6190,-6.6451,55.75131749,48.74302318,2.71000004,
20.837949,-4.5425,2.1365,1.2344,55.75131749,48.74302318,2.71000004,
20.839531,-4.5425,2.1365,1.2344,55.75131749,48.74302318,2.71000004,
20.840033,-4.5425,2.1365,1.2344,55.75131749,48.74302318,2.71000004,
20.859417,-4.5425,2.1365,1.2344,55.75131749,48.74302318,2.71000004,
20.908266,0.2489,7.5535,11.8913,55.75131749,48.74302318,2.71000004,
20.910662,0.2489,7.5535,11.8913,55.75131749,48.74302318,2.71000004,
20.912404,0.2489,7.5535,11.8913,55.75131749,48.74302318,2.71000004,
20.913283,0.2489,7.5535,11.8913,55.75131749,48.74302318,2.71000004,
20.914113,0.2489,7.5535,11.8913,55.75131749,48.74302318,2.71000004,
20.962299,0.2489,7.5535,11.8913,55.75131749,48.74302318,2.71000004,
20.963283,0.2489,7.5535,11.8913,55.75131749,48.74302318,2.71000004,
20.977767,7.1145,2.9388,15.9483,55.75131749,48.74302318,2.71000004,
20.978976,7.1145,2.9388,15.9483,55.75131749,48.74302318,2.71000004,
20.979464,7.1145,2.9388,15.9483,55.75131749,48.74302318,2.71000004,
21.015326,7.1145,2.9388,15.9483,55.75131749,48.74302318,2.71000004,
21.016638,7.1145,2.9388,15.9483,55.75131749,48.74302318,2.71000004,
21.049995,7.1145,2.9388,15.9483,55.75131749,48.74302318,2.71000004,
21.051859,1.6126,-6.6618,-9.3037,55.75131749,48.74302318,2.71000004,
21.053467,1.6126,-6.6618,-9.3037,55.75131749,48.74302318,2.71000004,
21.054334,1.6126,-6.6618,-9.3037,55.75131749,48.74302318,2.71000004,
21.070639,1.6126,-6.6618,-9.3037,55.75131749,48.74302318,2.71000004,
21.111374,1.6126,-6.6618,-9.3037,55.75131749,48.74302318,2.71000004,
21.112714,1.6126,-6.6618,-9.3037,55.75131749,48.74302318,2.71000004,
21.118893,-0.7932,-11.0977,-7.6992,55.75131749,48.74302318,2.71000004,
21.120913,-0.7932,-11.0977,-7.6992,55.75131749,48.74302318,2.71000004,
21.167669,-0.7932,-11.0977,-7.6992,55.75131749,48.74302318,2.71000004,
21.169585,-0.7932,-11.0977,-7.6992,55.75131749,48.74302318,2.71000004,
21.179143,-0.7932,-11.0977,-7.6992,55.75131749,48.74302318,2.71000004,
21.188568,2.6465,-8.9119,-11.3911,55.75131749,48.74302318,2.71000004,
21.190289,2.6465,-8.9119,-11.3911,55.75131749,48.74302318,2.71000004,
21.190995,2.6465,-8.9119,-11.3911,55.75131749,48.74302318,2.71000004,
21.230456,2.6465,-8.9119,-11.3911,55.75131749,48.74302318,2.71000004,
21.231682,2.6465,-8.9119,-11.3911,55.75131085,48.74306736,2.70000005,
21.259028,0.6904,-4.1867,-2.5241,55.75131085,48.74306736,2.70000005,
21.260932,0.6904,-4.1867,-2.5241,55.75131085,48.74306736,2.70000005,
21.261885,0.6904,-4.1867,-2.5241,55.75131085,48.74306736,2.70000005,
21.280601,0.6904,-4.1867,-2.5241,55.75131085,48.74306736,2.70000005,
21.307932,0.6904,-4.1867,-2.5241,55.75131085,48.74306736,2.70000005,
21.308877,0.6904,-4.1867,-2.5241,55.75131085,48.74306736,2.70000005,
21.330075,0.6904,-4.1867,-2.5241,55.75131085,48.74306736,2.70000005,
21.331364,0.6904,-4.1867,-2.5241,55.75131085,48.74306736,2.70000005,
21.331939,12.5486,6.9055,15.7777,55.75131085,48.74306736,2.70000005,
21.397230,12.5486,6.9055,15.7777,55.75131085,48.74306736,2.70000005,
21.398495,12.5486,6.9055,15.7777,55.75131085,48.74306736,2.70000005,
21.399121,12.5486,6.9055,15.7777,55.75131085,48.74306736,2.70000005,
21.399874,2.3792,11.6628,-0.6588,55.75131085,48.74306736,2.70000005,
21.400941,2.3792,11.6628,-0.6588,55.75131085,48.74306736,2.70000005,
21.453689,2.3792,11.6628,-0.6588,55.75131085,48.74306736,2.70000005,
21.455550,2.3792,11.6628,-0.6588,55.75131085,48.74306736,2.70000005,
21.456486,2.3792,11.6628,-0.6588,55.75131085,48.74306736,2.70000005,
21.471162,-9.1394,1.3696,-0.4999,55.75131085,48.74306736,2.70000005,
21.473819,-9.1394,1.3696,-0.4999,55.75131085,48.74306736,2.70000005,
21.475161,-9.1394,1.3696,-0.4999,55.75131085,48.74306736,2.70000005,
21.499858,-9.1394,1.3696,-0.4999,55.75131085,48.74306736,2.70000005,
21.541243,-9.1394,1.3696,-0.4999,55.75131085,48.74306736,2.70000005,
21.542999,-9.1394,1.3696,-0.4999,55.75131085,48.74306736,2.70000005,
21.543914,-9.1394,1.3696,-0.4999,55.75131085,48.74306736,2.70000005,
21.544770,-4.4030,-0.9504,-5.0228,55.75131085,48.74306736,2.70000005,
21.551558,-4.4030,-0.9504,-5.0228,55.75131085,48.74306736,2.70000005,
21.576202,-4.4030,-0.9504,-5.0228,55.75131085,48.74306736,2.70000005,
21.610110,-2.1773,-1.0594,0.7591,55.75131085,48.74306736,2.70000005,
21.611229,-2.1773,-1.0594,0.7591,55.75131085,48.74306736,2.70000005,
21.611679,-2.1773,-1.0594,0.7591,55.75131085,48.74306736,2.70000005,
21.612098,-2.1773,-1.0594,0.7591,55.75131085,48.74306736,2.70000005,
21.657937,-2.1773,-1.0594,0.7591,55.75131085,48.74306736,2.70000005,
21.658974,-2.1773,-1.0594,0.7591,55.75131085,48.74306736,2.70000005,
21.671147,-2.1773,-1.0594,0.7591,55.75131085,48.74306736,2.70000005,
21.679912,1.2623,3.2352,8.4485,55.75131085,48.74306736,2.70000005,
21.681053,1.2623,3.2352,8.4485,55.75131085,48.74306736,2.70000005,
21.711636,1.2623,3.2352,8.4485,55.75131085,48.74306736,2.70000005,
21.713257,1.2623,3.2352,8.4485,55.75131085,48.74306736,2.70000005,
21.751254,0.1269,-1.1627,11.1560,55.75131085,48.74306736,2.70000005,
21.753404,0.1269,-1.1627,11.1560,55.75131085,48.74306736,2.70000005,
21.754152,0.1269,-1.1627,11.1560,55.75131085,48.74306736,2.70000005,
21.754732,0.1269,-1.1627,11.1560,55.75131085,48.74306736,2.70000005,
21.779196,0.1269,-1.1627,11.1560,55.75131085,48.74306736,2.70000005,
21.807901,0.1269,-1.1627,11.1560,55.75131085,48.74306736,2.70000005,
21.820759,-0.3443,-3.3768,-9.1541,55.75131085,48.74306736,2.70000005,
21.822285,-0.3443,-3.3768,-9.1541,55.75131085,48.74306736,2.70000005,
21.822802,-0.3443,-3.3768,-9.1541,55.75131085,48.74306736,2.70000005,
21.874811,-0.3443,-3.3768,-9.1541,55.75131085,48.74306736,2.70000005,
21.876033,-0.3443,-3.3768,-9.1541,55.75131085,48.74306736,2.70000005,
21.876494,-0.3443,-3.3768,-9.1541,55.75131085,48.74306736,2.70000005,
21.891333,0.2529,-6.3780,-5.7081,55.75131085,48.74306736,2.70000005,
21.893333,0.2529,-6.3780,-5.7081,55.75131085,48.74306736,2.70000005,
21.893937,0.2529,-6.3780,-5.7081,55.75131085,48.74306736,2.70000005,
21.942416,0.2529,-6.3780,-5.7081,55.75131085,48.74306736,2.70000005,
21.943721,0.2529,-6.3780,-5.7081,55.75131085,48.74306736,2.70000005,
21.961722,0.2529,-6.3780,-5.7081,55.75131085,48.74306736,2.70000005,
21.963280,3.5279,-3.9981,-7.8844,55.75131085,48.74306736,2.70000005,
21.964092,3.5279,-3.9981,-7.8844,55.75131085,48.74306736,2.70000005,
21.997211,3.5279,-3.9981,-7.8844,55.75131085,48.74306736,2.70000005,
21.998840,3.5279,-3.9981,-7.8844,55.75131085,48.74306736,2.70000005,
22.032498,3.5279,-3.9981,-7.8844,55.75131085,48.74306736,2.70000005,
22.035762,3.5279,-3.9981,-7.8844,55.75131085,48.74306736,2.70000005,
22.037266,3.5279,-3.9981,-7.8844,55.75131085,48.74306736,2.70000005,
22.038538,2.7756,2.6866,1.8901,55.75131085,48.74306736,2.70000005,
22.056194,2.7756,2.6866,1.8901,55.75131085,48.74306736,2.70000005,
22.087720,2.7756,2.6866,1.8901,55.75131085,48.74306736,2.70000005,
22.106426,1.6652,5.7873,17.7908,55.75131085,48.74306736,2.70000005,
22.108893,1.6652,5.7873,17.7908,55.75131085,48.74306736,2.70000005,
22.109930,1.6652,5.7873,17.7908,55.75131085,48.74306736,2.70000005,
22.116498,1.6652,5.7873,17.7908,55.75131085,48.74306736,2.70000005,
22.170077,1.6652,5.7873,17.7908,55.75131085,48.74306736,2.70000005,
22.171472,1.6652,5.7873,17.7908,55.75131085,48.74306736,2.70000005,
22.173310,1.6652,5.7873,17.7908,55.75131085,48.74306736,2.70000005,
22.174138,1.6652,5.7873,17.7908,55.75131085,48.74306736,2.70000005,
22.174724,2.4957,3.1395,-4.3912,55.75131085,48.74306736,2.70000005,
22.212262,2.4957,3.1395,-4.3912,55.75131085,48.74306736,2.70000005,
22.213337,2.4957,3.1395,-4.3912,55.75130083,48.74311985,3.18000007,
22.242157,-2.9139,-4.1654,-2.5422,55.75130083,48.74311985,3.18000007,
22.243352,-2.9139,-4.1654,-2.5422,55.75130083,48.74311985,3.18000007,
22.243854,-2.9139,-4.1654,-2.5422,55.75130083,48.74311985,3.18000007,
22.274347,-2.9139,-4.1654,-2.5422,55.75130083,48.74311985,3.18000007,
22.275218,-2.9139,-4.1654,-2.5422,55.75130083,48.74311985,3.18000007,
22.308260,-2.9139,-4.1654,-2.5422,55.75130083,48.74311985,3.18000007,
22.312819,-2.9139,-4.1654,-2.5422,55.75130083,48.74311985,3.18000007,
22.313217,-3.9060,-4.3237,-7.7361,55.75130083,48.74311985,3.18000007,
22.313686,-3.9060,-4.3237,-7.7361,55.75130083,48.74311985,3.18000007,
22.334389,-3.9060,-4.3237,-7.7361,55.75130083,48.74311985,3.18000007,
22.383460,-3.9060,-4.3237,-7.7361,55.75130083,48.74311985,3.18000007,
22.384659,-3.9060,-4.3237,-7.7361,55.75130083,48.74311985,3.18000007,
22.385557,-3.3384,-1.9931,-0.2298,55.75130083,48.74311985,3.18000007,
22.386398,-3.3384,-1.9931,-0.2298,55.75130083,48.74311985,3.18000007,
22.398156,-3.3384,-1.9931,-0.2298,55.75130083,48.74311985,3.18000007,
22.445754,-3.3384,-1.9931,-0.2298,55.75130083,48.74311985,3.18000007,
22.446902,-3.3384,-1.9931,-0.2298,55.75130083,48.74311985,3.18000007,
22.453556,-4.0146,3.8885,4.3226,55.75130083,48.74311985,3.18000007,
22.454695,-4.0146,3.8885,4.3226,55.75130083,48.74311985,3.18000007,
22.455269,-4.0146,3.8885,4.3226,55.75130083,48.74311985,3.18000007,
22.515459,-4.0146,3.8885,4.3226,55.75130083,48.74311985,3.18000007,
22.517198,-4.0146,3.8885,4.3226,55.75130083,48.74311985,3.18000007,
22.517832,-4.0146,3.8885,4.3226,55.75130083,48.74311985,3.18000007,
22.523422,-0.0329,4.8542,7.0514,55.75130083,48.74311985,3.18000007,
22.525250,-0.0329,4.8542,7.0514,55.75130083,48.74311985,3.18000007,
22.559616,-0.0329,4.8542,7.0514,55.75130083,48.74311985,3.18000007,
22.561633,-0.0329,4.8542,7.0514,55.75130083,48.74311985,3.18000007,
22.574713,-0.0329,4.8542,7.0514,55.75130083,48.74311985,3.18000007,
22.594392,-0.0329,4.8542,7.0514,55.75130083,48.74311985,3.18000007,
